ax;ay;az;d_row;d_pitch;d_yaw
-0.31415;0.37271;10.29497;-432.95001;-807.36249;-410.24374;0.00000;0.00000;0.00000
0.31598;-0.15799;10.69330;-98.43750;172.94376;-271.38126;0.00000;0.00000;0.00000
-0.16348;-0.13786;10.35231;-122.50000;329.17499;-152.77499;0.00000;0.00000;0.00000
0.21106;0.82899;9.10852;-58.71250;275.36249;-127.05000;0.00000;0.00000;0.00000
0.05185;0.39223;9.65081;-36.92500;157.14999;-133.43750;0.00000;0.00000;0.00000
-0.00183;0.22631;9.93812;2.71250;19.95000;-153.56250;0.00000;0.00000;0.00000
-0.11834;0.05612;10.27545;-0.96250;21.13125;-149.18750;0.00000;0.00000;0.00000
-0.06893;0.12444;10.11502;-0.43750;21.00000;-146.03751;0.00000;0.00000;0.00000
-0.05429;0.10248;10.15955;-0.13125;20.43125;-141.57500;0.00000;0.00000;0.00000
-0.07625;0.09394;10.17907;-0.87500;20.56250;-135.27499;-0.18000;1.84500;2.62500
-0.07686;0.10004;10.19737;-0.70000;21.17500;-131.07500;-0.18000;1.84500;2.62500
-0.07503;0.12322;10.15406;-1.44375;20.95625;-126.87500;-0.18000;1.84500;2.62500
-0.08235;0.09577;10.17114;-1.48750;21.56875;-121.27500;-0.18000;1.84500;2.62500
-0.05429;0.10919;10.11807;-0.83125;21.70000;-118.43125;-0.18000;1.84500;2.62500
-0.06283;0.12200;10.13393;-1.40000;21.04375;-113.35625;-0.18000;1.84500;2.62500
-0.09455;0.08723;10.19005;-1.44375;20.91250;-110.20625;-0.18000;1.84500;2.62500
-0.03477;0.11407;10.19798;-0.96250;21.65625;-105.08750;-0.18000;1.84500;2.62500
-0.09943;0.09638;10.16077;-1.40000;21.08750;-100.40625;-0.18000;1.84500;2.62500
-0.04575;0.12505;10.16321;-1.31250;21.30625;-96.99375;-0.16500;1.86000;2.65500
-0.09028;0.08662;10.16809;-1.66250;21.21875;-90.38750;-0.16500;1.86000;2.65500
-0.08357;0.10919;10.18029;-1.26875;21.65625;-85.83750;-0.16500;1.86000;2.65500
-0.03172;0.12017;10.12417;-2.05625;21.52500;-80.15000;-0.16500;1.86000;2.65500
-0.07503;0.07991;10.13637;-1.35625;21.61250;-75.77500;-0.16500;1.86000;2.65500
-0.05917;0.10126;10.15589;-1.31250;22.09375;-72.62500;-0.16500;1.86000;2.65500
-0.05673;0.09577;10.16077;-1.96875;21.96250;-66.36875;-0.16500;1.86000;2.65500
-0.09211;0.10126;10.16931;-1.61875;22.22500;-62.08125;-0.16500;1.86000;2.65500
-0.05978;0.09394;10.16626;-1.22500;21.65625;-59.19375;-0.16500;1.86000;2.65500
-0.07686;0.10858;10.14796;-1.57500;21.26250;-54.33750;-0.16500;1.86000;2.65500
-0.07381;0.10675;10.14857;-1.44375;21.61250;-49.65625;-0.19500;1.90500;2.65500
-0.08662;0.09211;10.15467;-1.79375;21.87500;-44.45000;-0.19500;1.90500;2.65500
-0.05734;0.12505;10.17175;-2.18750;21.87500;-38.32500;-0.19500;1.90500;2.65500
-0.06771;0.08479;10.13576;-1.83750;21.26250;-33.64375;-0.19500;1.90500;2.65500
-0.06222;0.10675;10.18273;-2.01250;21.52500;-29.09375;-0.19500;1.90500;2.65500
-0.07076;0.09394;10.18090;-2.27500;21.70000;-24.19375;-0.19500;1.90500;2.65500
-0.07259;0.10126;10.11258;-1.66250;21.78750;-19.99375;-0.19500;1.90500;2.65500
-0.07747;0.10248;10.16504;-2.36250;21.87500;-15.79375;-0.19500;1.90500;2.65500
-0.06710;0.07991;10.12051;-2.45000;21.83125;-10.50000;-0.19500;1.90500;2.65500
-0.05917;0.09028;10.17602;-2.18750;22.22500;-6.73750;-0.19500;1.90500;2.65500
-0.09150;0.11712;10.18883;-1.70625;21.91875;-2.36250;-0.15000;1.95000;2.64000
-0.04758;0.12505;10.16870;-1.66250;22.26875;2.62500;-0.15000;1.95000;2.64000
-0.08723;0.08479;10.13759;-1.96875;21.43750;8.75000;-0.15000;1.95000;2.64000
-0.05734;0.11651;10.17114;-2.27500;22.09375;13.86875;-0.15000;1.95000;2.64000
-0.07747;0.10797;10.14247;-2.49375;21.83125;19.20625;-0.15000;1.95000;2.64000
-0.04392;0.09028;10.15650;-2.71250;22.48750;23.01250;-0.15000;1.95000;2.64000
-0.06954;0.09455;10.20652;-2.40625;22.00625;27.95625;-0.15000;1.95000;2.64000
-0.05612;0.09638;10.13027;-2.58125;22.00625;31.10625;-0.15000;1.95000;2.64000
-0.07564;0.10736;10.16443;-2.27500;21.43750;36.53125;-0.15000;1.95000;2.64000
-0.05673;0.11163;10.18639;-2.49375;21.87500;41.60625;-0.15000;1.95000;2.64000
-0.05429;0.07015;10.13454;-2.66875;21.74375;46.68125;-0.10500;1.93500;2.59500
-0.06405;0.11773;10.16931;-2.45000;22.40000;51.10000;-0.10500;1.93500;2.59500
-0.03904;0.11468;10.14674;-2.80000;22.70625;56.65625;-0.10500;1.93500;2.59500
-0.05856;0.07625;10.10953;-3.01875;22.09375;62.12500;-0.10500;1.93500;2.59500
-0.05795;0.08906;10.16138;-2.75625;22.18125;67.37500;-0.10500;1.93500;2.59500
-0.06832;0.11346;10.14979;-3.19375;22.18125;71.79375;-0.10500;1.93500;2.59500
-0.04758;0.08357;10.13698;-3.15000;21.78750;75.16250;-0.10500;1.93500;2.59500
-0.05673;0.11407;10.15955;-3.15000;21.91875;80.76250;-0.10500;1.93500;2.59500
-0.09516;0.10309;10.19737;-2.88750;23.05625;85.09375;-0.10500;1.93500;2.59500
-0.03477;0.12566;10.14796;-3.41250;22.66250;89.16250;-0.15000;1.87500;2.62500
-0.09699;0.09028;10.19432;-3.10625;22.70625;94.58750;-0.15000;1.87500;2.62500
-0.03843;0.10248;10.13515;-2.49375;22.48750;97.82500;-0.15000;1.87500;2.62500
-0.06161;0.14030;10.14186;-3.67500;22.18125;102.28750;-0.15000;1.87500;2.62500
-0.06344;0.10187;10.15406;-3.58750;22.18125;106.79375;-0.15000;1.87500;2.62500
-0.07930;0.10065;10.18822;-3.36875;22.35625;113.31250;-0.15000;1.87500;2.62500
-0.06893;0.08113;10.15894;-3.41250;22.44375;117.64375;-0.15000;1.87500;2.62500
-0.08601;0.09150;10.15284;-3.71875;23.14375;123.41875;-0.15000;1.87500;2.62500
-0.06954;0.07991;10.16443;-3.76250;22.96875;126.39375;-0.15000;1.87500;2.62500
-0.05002;0.12261;10.13942;-3.80625;21.96250;131.51250;-0.15000;1.87500;2.62500
-0.08235;0.11407;10.14430;-3.45625;22.35625;135.88750;-0.18000;1.87500;2.65500
-0.08418;0.09943;10.15223;-3.01875;22.09375;139.08125;-0.18000;1.87500;2.65500
-0.03599;0.12017;10.17053;-3.32500;22.66250;143.76250;-0.18000;1.87500;2.65500
-0.09150;0.07991;10.13881;-3.63125;22.75000;148.75000;-0.18000;1.87500;2.65500
-0.09028;0.08662;10.12051;-3.85000;22.66250;152.81876;-0.18000;1.87500;2.65500
-0.04758;0.10736;10.18700;-3.58750;22.92500;159.42500;-0.18000;1.87500;2.65500
-0.07198;0.08906;10.16077;-4.28750;22.57500;163.45000;-0.18000;1.87500;2.65500
-0.06893;0.12383;10.16870;-4.20000;22.96875;167.34375;-0.18000;1.87500;2.65500
-0.05795;0.10980;10.17724;-3.98125;22.70625;171.54375;-0.18000;1.87500;2.65500
-0.08845;0.10736;10.17785;-3.80625;22.88125;175.52499;-0.18000;1.87500;2.65500
-0.06405;0.10553;10.15406;-3.76250;22.83750;180.11874;-0.21000;1.89000;2.62500
-0.05429;0.09028;10.10892;-3.85000;22.57500;183.75000;-0.21000;1.89000;2.62500
-0.07930;0.08906;10.17358;-3.85000;22.79375;188.86874;-0.21000;1.89000;2.62500
-0.08967;0.09089;10.13698;-4.24375;23.23125;192.41251;-0.21000;1.89000;2.62500
-0.05917;0.09333;10.13210;-4.20000;22.57500;196.08749;-0.21000;1.89000;2.62500
-0.08174;0.11224;10.16016;-4.37500;23.84375;200.72501;-0.21000;1.89000;2.62500
-0.07137;0.10492;10.21262;-4.24375;22.79375;205.18750;-0.21000;1.89000;2.62500
-0.05124;0.12139;10.17114;-4.55000;22.75000;210.65625;-0.21000;1.89000;2.62500
-0.13603;0.06222;10.13698;-4.81250;22.88125;214.33125;-0.21000;1.89000;2.62500
-0.04575;0.09150;10.13881;-4.20000;22.61875;217.30624;-0.27000;1.86000;2.65500
-0.08540;0.09943;10.17663;-4.63750;22.70625;222.90625;-0.27000;1.86000;2.65500
-0.10126;0.09882;10.16565;-5.03125;22.92500;225.35625;-0.27000;1.86000;2.65500
-0.07442;0.11773;10.15345;-4.55000;22.57500;229.25000;-0.27000;1.86000;2.65500
-0.07381;0.09760;10.15467;-4.55000;23.18750;232.92500;-0.27000;1.86000;2.65500
-0.08235;0.11346;10.13454;-4.20000;22.79375;236.25000;-0.27000;1.86000;2.65500
-0.09455;0.11651;10.17114;-4.68125;22.53125;240.49374;-0.27000;1.86000;2.65500
-0.08174;0.09211;10.12905;-4.81250;23.36250;245.70000;-0.27000;1.86000;2.65500
-0.07869;0.08235;10.17419;-4.94375;23.05625;249.33125;-0.27000;1.86000;2.65500
-0.10675;0.10187;10.16077;-5.16250;23.05625;252.83125;-0.27000;1.86000;2.65500
-0.06405;0.11468;10.18334;-5.16250;23.45000;256.02499;-0.31500;1.87500;2.65500
-0.08174;0.12322;10.16626;-4.81250;23.62500;260.92499;-0.31500;1.87500;2.65500
-0.07991;0.10004;10.13576;-4.68125;22.79375;262.58749;-0.31500;1.87500;2.65500
-0.08052;0.11285;10.13210;-4.68125;22.88125;267.31250;-0.31500;1.87500;2.65500
-0.08174;0.09699;10.12051;-4.81250;23.10000;270.37500;-0.31500;1.87500;2.65500
-0.11224;0.10919;10.12173;-4.98750;23.58125;274.09375;-0.31500;1.87500;2.65500
-0.07991;0.09638;10.15406;-4.98750;23.36250;276.89374;-0.31500;1.87500;2.65500
-0.05734;0.11041;10.16016;-4.90000;23.49375;279.91251;-0.31500;1.87500;2.65500
-0.11773;0.11529;10.16199;-5.25000;23.23125;284.76874;-0.31500;1.87500;2.65500
-0.08662;0.09455;10.13881;-4.98750;23.01250;287.96249;-0.31500;1.87500;2.65500
-0.09699;0.11102;10.15528;-5.29375;23.53750;292.33749;-0.36000;1.87500;2.64000
-0.09760;0.08845;10.18273;-5.29375;23.36250;294.48126;-0.36000;1.87500;2.64000
-0.08906;0.11773;10.12234;-5.11875;23.40625;297.85001;-0.36000;1.87500;2.64000
-0.08723;0.09333;10.13210;-5.16250;22.83750;300.38751;-0.36000;1.87500;2.64000
-0.08052;0.10797;10.15711;-5.38125;22.96875;302.92499;-0.36000;1.87500;2.64000
-0.09394;0.08296;10.13271;-4.81250;23.27500;306.77499;-0.36000;1.87500;2.64000
-0.10736;0.09821;10.19493;-5.46875;23.01250;309.88126;-0.36000;1.87500;2.64000
-0.09028;0.10858;10.13088;-6.34375;23.66875;311.67499;-0.36000;1.87500;2.64000
-0.11285;0.09211;10.17907;-5.81875;23.31875;315.78751;-0.36000;1.87500;2.64000
-0.08906;0.11895;10.16382;-5.11875;23.18750;318.80624;-0.36000;1.87500;2.64000
-0.10187;0.10187;10.15589;-5.29375;22.96875;321.95624;-0.42000;1.87500;2.67000
-0.07137;0.11041;10.15101;-5.46875;23.05625;323.92499;-0.42000;1.87500;2.67000
-0.08113;0.11773;10.15284;-5.73125;23.53750;328.16876;-0.42000;1.87500;2.67000
-0.10919;0.10675;10.15223;-5.42500;23.36250;328.86874;-0.42000;1.87500;2.67000
-0.07503;0.11590;10.12722;-5.95000;23.36250;332.06250;-0.42000;1.87500;2.67000
-0.11834;0.09882;10.17358;-6.43125;23.58125;336.21875;-0.42000;1.87500;2.67000
-0.10858;0.10431;10.16626;-5.11875;23.49375;337.26874;-0.42000;1.87500;2.67000
-0.08662;0.11834;10.14735;-5.77500;23.88750;339.41251;-0.42000;1.87500;2.67000
-0.12200;0.08479;10.14552;-5.81875;22.96875;342.25626;-0.42000;1.87500;2.67000
-0.09089;0.11468;10.17968;-6.25625;23.31875;344.88126;-0.45000;1.84500;2.65500
-0.10187;0.09699;10.17968;-5.81875;23.27500;347.76874;-0.45000;1.84500;2.65500
-0.05307;0.13908;10.14674;-5.99375;23.36250;348.33749;-0.45000;1.84500;2.65500
-0.12993;0.09577;10.12600;-6.03750;23.62500;352.84375;-0.45000;1.84500;2.65500
-0.12078;0.09455;10.14247;-5.55625;23.45000;353.06250;-0.45000;1.84500;2.65500
-0.08967;0.12139;10.13576;-5.64375;23.31875;355.07501;-0.45000;1.84500;2.65500
-0.11895;0.10248;10.15406;-5.95000;23.36250;358.48749;-0.45000;1.84500;2.65500
-0.10614;0.12139;10.17785;-6.08125;23.14375;359.75626;-0.45000;1.84500;2.65500
-0.08967;0.10858;10.18883;-6.08125;23.93125;360.58749;-0.45000;1.84500;2.65500
-0.10736;0.11468;10.12356;-6.03750;23.88750;363.34375;-0.45000;1.84500;2.65500
-0.12078;0.09089;10.15406;-6.12500;23.75625;365.26874;-0.55500;1.83000;2.61000
-0.08357;0.11895;10.17785;-5.90625;23.49375;367.41251;-0.55500;1.83000;2.61000
-0.07320;0.07869;10.13759;-6.08125;24.06250;370.12500;-0.55500;1.83000;2.61000
-0.11041;0.09699;10.11807;-6.08125;23.53750;370.78125;-0.55500;1.83000;2.61000
-0.07747;0.12566;10.17358;-6.38750;23.75625;372.53125;-0.55500;1.83000;2.61000
-0.12566;0.09089;10.13515;-6.38750;23.05625;374.89374;-0.55500;1.83000;2.61000
-0.09699;0.09638;10.14735;-6.21250;22.92500;374.32501;-0.55500;1.83000;2.61000
-0.12078;0.09699;10.16321;-6.03750;23.53750;377.25626;-0.55500;1.83000;2.61000
-0.13847;0.10248;10.17236;-5.64375;23.14375;377.86874;-0.55500;1.83000;2.61000
-0.09821;0.11224;10.15833;-5.90625;23.88750;378.61249;-0.55500;1.83000;2.61000
-0.13237;0.11407;10.17236;-5.73125;23.53750;381.28125;-0.69000;1.75500;2.62500
-0.10431;0.12871;10.17602;-6.25625;23.71250;381.89374;-0.69000;1.75500;2.62500
-0.11102;0.11285;10.13027;-6.25625;23.18750;384.08124;-0.69000;1.75500;2.62500
-0.13054;0.08540;10.13637;-6.78125;23.23125;384.25626;-0.69000;1.75500;2.62500
-0.10004;0.10736;10.13332;-5.73125;23.23125;384.08124;-0.69000;1.75500;2.62500
-0.11773;0.12200;10.17419;-6.12500;23.10000;387.36249;-0.69000;1.75500;2.62500
-0.12871;0.06100;10.12478;-6.16875;23.66875;387.31876;-0.69000;1.75500;2.62500
-0.12017;0.11102;10.15345;-6.91250;24.06250;386.92499;-0.69000;1.75500;2.62500
-0.09455;0.11468;10.17358;-6.69375;23.45000;388.93750;-0.69000;1.75500;2.62500
-0.12993;0.08052;10.12844;-6.43125;23.45000;389.72501;-0.75000;1.71000;2.56500
-0.12078;0.09150;10.13576;-5.60000;23.80000;389.81250;-0.75000;1.71000;2.56500
-0.10370;0.09821;10.12417;-5.95000;23.45000;392.48126;-0.75000;1.71000;2.56500
-0.13359;0.08723;10.14491;-6.12500;23.23125;390.33749;-0.75000;1.71000;2.56500
-0.09272;0.14640;10.19981;-5.90625;22.92500;392.04376;-0.75000;1.71000;2.56500
-0.14396;0.09455;10.13210;-5.46875;23.36250;394.10001;-0.75000;1.71000;2.56500
-0.12017;0.09699;10.15345;-6.51875;23.05625;392.13126;-0.75000;1.71000;2.56500
-0.11834;0.10736;10.14308;-6.08125;23.80000;393.48749;-0.75000;1.71000;2.56500
-0.14335;0.07503;10.13576;-5.90625;22.79375;394.62500;-0.75000;1.71000;2.56500
-0.13115;0.08845;10.12539;-6.65000;22.96875;392.70001;-0.75000;1.71000;2.56500
-0.10553;0.10309;10.12661;-6.38750;23.66875;391.95624;-0.87000;1.71000;2.53500
-0.11102;0.08662;10.14979;-6.47500;24.06250;394.18750;-0.87000;1.71000;2.53500
-0.14091;0.11834;10.18151;-6.43125;23.66875;393.39999;-0.87000;1.71000;2.53500
-0.10980;0.10004;10.16077;-5.90625;22.83750;393.53125;-0.87000;1.71000;2.53500
-0.12993;0.08906;10.12295;-6.60625;23.66875;393.26874;-0.87000;1.71000;2.53500
-0.11712;0.10431;10.15406;-5.99375;23.66875;392.61249;-0.87000;1.71000;2.53500
-0.13420;0.11224;10.18456;-6.30000;23.80000;394.10001;-0.87000;1.71000;2.53500
-0.14823;0.09943;10.13454;-5.99375;23.53750;391.78125;-0.87000;1.71000;2.53500
-0.09150;0.10675;10.09062;-5.73125;23.27500;392.70001;-0.87000;1.71000;2.53500
-0.14518;0.07869;10.16077;-7.04375;23.53750;393.48749;-0.87000;1.71000;2.53500
-0.14945;0.09882;10.14735;-5.77500;23.88750;390.77499;-0.94500;1.60500;2.55000
-0.12200;0.11773;10.13576;-6.38750;23.80000;391.73749;-0.94500;1.60500;2.55000
-0.15921;0.07259;10.14308;-6.03750;23.31875;391.38751;-0.94500;1.60500;2.55000
-0.11956;0.12261;10.13942;-6.08125;23.27500;390.03125;-0.94500;1.60500;2.55000
-0.15250;0.07625;10.14003;-6.16875;23.14375;390.20624;-0.94500;1.60500;2.55000
-0.12810;0.11346;10.13027;-6.56250;23.62500;387.36249;-0.94500;1.60500;2.55000
-0.15494;0.08113;10.13332;-6.25625;23.14375;388.89374;-0.94500;1.60500;2.55000
-0.15128;0.09394;10.15223;-5.77500;23.27500;386.70624;-0.94500;1.60500;2.55000
-0.10675;0.07320;10.13271;-6.47500;24.10625;385.74374;-0.94500;1.60500;2.55000
-0.14579;0.09699;10.12234;-6.47500;23.18750;386.35626;-0.94500;1.60500;2.55000
-0.13115;0.12322;10.22177;-6.47500;23.49375;382.76874;-0.99000;1.54500;2.53500
-0.11651;0.10309;10.14430;-5.90625;23.66875;382.94376;-0.99000;1.54500;2.53500
-0.15250;0.04514;10.12417;-6.51875;23.80000;381.19376;-0.99000;1.54500;2.53500
-0.13359;0.09760;10.16321;-5.99375;23.18750;380.36249;-0.99000;1.54500;2.53500
-0.15738;0.06710;10.13210;-5.73125;24.01875;378.04376;-0.99000;1.54500;2.53500
-0.12993;0.09333;10.16138;-5.90625;22.53125;376.60001;-0.99000;1.54500;2.53500
-0.14701;0.11285;10.18517;-5.86250;23.75625;376.46875;-0.99000;1.54500;2.53500
-0.16104;0.06771;10.16504;-5.95000;23.45000;374.80624;-0.99000;1.54500;2.53500
-0.13298;0.09089;10.15345;-5.42500;23.66875;372.26874;-0.99000;1.54500;2.53500
-0.13847;0.10370;10.16016;-6.16875;22.79375;372.57501;-1.09500;1.50000;2.52000
-0.13908;0.07930;10.16748;-6.12500;23.40625;370.25626;-1.09500;1.50000;2.52000
-0.14884;0.08113;10.13820;-5.90625;23.71250;368.81250;-1.09500;1.50000;2.52000
-0.10980;0.10370;10.15345;-6.03750;23.45000;367.14999;-1.09500;1.50000;2.52000
-0.15738;0.06527;10.15406;-6.47500;24.06250;365.83749;-1.09500;1.50000;2.52000
-0.12871;0.10004;10.16199;-6.34375;23.62500;362.38126;-1.09500;1.50000;2.52000
-0.16897;0.10065;10.17724;-5.68750;23.45000;361.37500;-1.09500;1.50000;2.52000
-0.12078;0.09089;10.11563;-5.90625;23.80000;357.96249;-1.09500;1.50000;2.52000
-0.13664;0.05978;10.11868;-5.46875;23.80000;357.74374;-1.09500;1.50000;2.52000
-0.16409;0.08357;10.16504;-5.99375;22.92500;355.16251;-1.09500;1.50000;2.52000
-0.12139;0.08357;10.12783;-5.86250;23.27500;352.14374;-1.23000;1.41000;2.49000
-0.17202;0.07198;10.14796;-5.90625;23.23125;350.48126;-1.23000;1.41000;2.49000
-0.14823;0.08967;10.11258;-5.55625;23.71250;347.28751;-1.23000;1.41000;2.49000
-0.12078;0.09638;10.13881;-5.99375;23.71250;346.67499;-1.23000;1.41000;2.49000
-0.16836;0.04575;10.11868;-5.60000;23.14375;344.70624;-1.23000;1.41000;2.49000
-0.14091;0.05917;10.15101;-5.68750;23.66875;340.11249;-1.23000;1.41000;2.49000
-0.15128;0.07381;10.16382;-5.46875;23.66875;338.53751;-1.23000;1.41000;2.49000
-0.16226;0.07198;10.15772;-5.38125;23.84375;334.99374;-1.23000;1.41000;2.49000
-0.12810;0.07564;10.12905;-5.90625;23.23125;334.16251;-1.23000;1.41000;2.49000
-0.16104;0.05978;10.13759;-6.08125;23.49375;332.01874;-1.23000;1.41000;2.49000
-0.13603;0.06771;10.13027;-5.64375;22.92500;327.90625;-1.26000;1.35000;2.50500
-0.14518;0.08113;10.15040;-5.38125;23.36250;326.76874;-1.26000;1.35000;2.50500
-0.18117;0.06161;10.18822;-4.94375;23.05625;322.87500;-1.26000;1.35000;2.50500
-0.13603;0.09760;10.11563;-5.11875;23.23125;319.76874;-1.26000;1.35000;2.50500
-0.18666;0.04392;10.14796;-5.73125;23.71250;319.02499;-1.26000;1.35000;2.50500
-0.14213;0.08479;10.15406;-5.46875;23.49375;314.08124;-1.26000;1.35000;2.50500
-0.15738;0.07259;10.17175;-4.98750;23.10000;311.19376;-1.26000;1.35000;2.50500
-0.17202;0.06588;10.15833;-5.42500;23.45000;307.69376;-1.26000;1.35000;2.50500
-0.12688;0.07564;10.12051;-5.11875;23.10000;305.63751;-1.26000;1.35000;2.50500
-0.16470;0.06039;10.13881;-5.07500;23.45000;302.00626;-1.26000;1.29000;2.50500
-0.13847;0.07991;10.18517;-5.38125;23.14375;298.33124;-1.26000;1.29000;2.50500
-0.17141;0.07442;10.14308;-5.11875;23.49375;297.10626;-1.26000;1.29000;2.50500
-0.17751;0.05917;10.15589;-4.63750;23.18750;292.42499;-1.26000;1.29000;2.50500
-0.13725;0.09943;10.19127;-4.81250;23.49375;289.01251;-1.26000;1.29000;2.50500
-0.16836;0.04758;10.13271;-4.59375;23.31875;287.13126;-1.26000;1.29000;2.50500
-0.14030;0.06771;10.14857;-5.55625;22.88125;283.41251;-1.26000;1.29000;2.50500
-0.13908;0.08357;10.14369;-5.60000;23.88750;279.08124;-1.26000;1.29000;2.50500
-0.15067;0.07625;10.15955;-4.46250;23.36250;274.92499;-1.26000;1.29000;2.50500
-0.13481;0.06222;10.11014;-4.85625;23.27500;272.16876;-1.26000;1.29000;2.50500
-0.16348;0.06161;10.13698;-5.16250;23.05625;269.10626;-1.30500;1.20000;2.50500
-0.16409;0.06527;10.11990;-4.98750;23.14375;265.56250;-1.30500;1.20000;2.50500
-0.16592;0.06222;10.15284;-4.94375;23.05625;261.14374;-1.30500;1.20000;2.50500
-0.15738;0.05124;10.13820;-5.33750;23.05625;258.08124;-1.30500;1.20000;2.50500
-0.16226;0.06832;10.17663;-5.55625;23.27500;254.93124;-1.30500;1.20000;2.50500
-0.16836;0.06039;10.15589;-5.03125;23.49375;251.47501;-1.30500;1.20000;2.50500
-0.15860;0.02806;10.12966;-4.59375;22.88125;248.28125;-1.30500;1.20000;2.50500
-0.16470;0.07320;10.16443;-4.15625;22.70625;244.34375;-1.30500;1.20000;2.50500
-0.16104;0.06588;10.16382;-4.59375;22.79375;238.30624;-1.30500;1.20000;2.50500
-0.19093;0.06161;10.16443;-5.20625;23.31875;234.01875;-1.30500;1.20000;2.50500
-0.14274;0.03904;10.14430;-4.81250;23.10000;231.26250;-1.35000;1.14000;2.53500
-0.14945;0.05063;10.16077;-4.68125;23.18750;227.54375;-1.35000;1.14000;2.53500
-0.14884;0.07930;10.16687;-4.11250;23.01250;223.34375;-1.35000;1.14000;2.53500
-0.16592;0.05551;10.14369;-4.46250;22.79375;219.58125;-1.35000;1.14000;2.53500
-0.14701;0.04087;10.12844;-4.94375;22.70625;216.12500;-1.35000;1.14000;2.53500
-0.12688;0.05002;10.12905;-4.28750;22.96875;211.39999;-1.35000;1.14000;2.53500
-0.16104;0.06832;10.14735;-5.07500;22.70625;209.34375;-1.35000;1.14000;2.53500
-0.16043;0.03233;10.12966;-4.28750;23.10000;203.96249;-1.35000;1.14000;2.53500
-0.13176;0.05368;10.13210;-4.55000;23.45000;198.14375;-1.35000;1.14000;2.53500
-0.15738;0.04392;10.12905;-3.85000;22.79375;194.16251;-1.35000;1.14000;2.53500
-0.15433;0.04270;10.16748;-4.55000;23.45000;189.48125;-1.42500;1.11000;2.52000
-0.16348;0.04758;10.12783;-4.33125;23.23125;186.06876;-1.42500;1.11000;2.52000
-0.16104;0.05368;10.16931;-4.41875;22.70625;182.21875;-1.42500;1.11000;2.52000
-0.17263;0.05673;10.13820;-4.46250;23.05625;178.01875;-1.42500;1.11000;2.52000
-0.14335;0.05612;10.13210;-3.93750;22.61875;173.25000;-1.42500;1.11000;2.52000
-0.14884;0.04087;10.12905;-4.59375;22.48750;169.57500;-1.42500;1.11000;2.52000
-0.15799;0.05368;10.14613;-4.28750;22.48750;164.89375;-1.42500;1.11000;2.52000
-0.15555;0.07381;10.13454;-4.46250;22.18125;161.56876;-1.42500;1.11000;2.52000
-0.15921;0.03843;10.13637;-3.63125;22.44375;157.06250;-1.42500;1.11000;2.52000
-0.14335;0.04270;10.13515;-4.37500;21.87500;151.02499;-1.45500;1.09500;2.49000
-0.15860;0.05246;10.15284;-4.02500;22.70625;146.25626;-1.45500;1.09500;2.49000
-0.14762;0.03294;10.12905;-3.67500;22.83750;141.96875;-1.45500;1.09500;2.49000
-0.12932;0.07015;10.17480;-4.06875;22.88125;137.94376;-1.45500;1.09500;2.49000
-0.16165;0.04453;10.14491;-3.80625;22.96875;133.61250;-1.45500;1.09500;2.49000
-0.13725;0.05734;10.15345;-3.15000;23.23125;127.96875;-1.45500;1.09500;2.49000
-0.16226;0.04392;10.14064;-3.89375;21.87500;125.51875;-1.45500;1.09500;2.49000
-0.14274;0.03111;10.11502;-3.19375;22.88125;119.70000;-1.45500;1.09500;2.49000
-0.15555;0.05429;10.17785;-3.32500;22.66250;115.93750;-1.45500;1.09500;2.49000
-0.14579;0.05734;10.17846;-2.93125;22.40000;112.17500;-1.45500;1.09500;2.49000
-0.16226;0.04453;10.15589;-2.84375;22.26875;104.82500;-1.44000;1.05000;2.49000
-0.17324;0.06832;10.18822;-3.54375;22.61875;100.62500;-1.44000;1.05000;2.49000
-0.12322;0.05063;10.16687;-2.80000;22.88125;96.07500;-1.44000;1.05000;2.49000
-0.15433;0.04270;10.14491;-3.19375;22.66250;91.39375;-1.44000;1.05000;2.49000
-0.17629;0.03599;10.15101;-3.45625;22.22500;86.84375;-1.44000;1.05000;2.49000
-0.15616;0.03233;10.12173;-3.10625;22.22500;82.38125;-1.44000;1.05000;2.49000
-0.16348;0.04453;10.16138;-3.06250;21.43750;78.40000;-1.44000;1.05000;2.49000
-0.14945;0.04636;10.11197;-2.53750;21.65625;73.06250;-1.44000;1.05000;2.49000
-0.14640;0.04331;10.15650;-2.97500;22.48750;68.77500;-1.44000;1.05000;2.49000
-0.16287;0.05856;10.12356;-2.80000;22.75000;64.44375;-1.44000;1.05000;2.49000
-0.16043;0.04270;10.14430;-3.36875;22.79375;59.71875;-1.44000;0.97500;2.46000
-0.15189;0.05490;10.14186;-2.97500;22.44375;54.29375;-1.44000;0.97500;2.46000
-0.18117;0.04026;10.16016;-2.27500;22.05000;47.86250;-1.44000;0.97500;2.46000
-0.14213;0.03599;10.13027;-2.40625;21.96250;44.62500;-1.44000;0.97500;2.46000
-0.17263;0.03050;10.15345;-2.45000;22.48750;39.76875;-1.44000;0.97500;2.46000
-0.15982;0.06100;10.13393;-2.93125;22.75000;33.81875;-1.44000;0.97500;2.46000
-0.13359;0.06588;10.15467;-2.84375;22.22500;30.58125;-1.44000;0.97500;2.46000
-0.18239;0.01098;10.13454;-2.62500;21.91875;26.25000;-1.44000;0.97500;2.46000
-0.16653;0.05307;10.16504;-2.80000;22.26875;20.16875;-1.44000;0.97500;2.46000
-0.15128;0.03721;10.12112;-2.23125;22.31250;16.53750;-1.45500;0.93000;2.47500
-0.17080;0.04148;10.17053;-1.88125;21.96250;12.20625;-1.45500;0.93000;2.47500
-0.17324;0.04148;10.12661;-1.92500;22.18125;4.68125;-1.45500;0.93000;2.47500
-0.13908;0.06222;10.12478;-2.01250;22.83750;2.36250;-1.45500;0.93000;2.47500
-0.17202;0.03233;10.13088;-2.18750;22.66250;-4.55000;-1.45500;0.93000;2.47500
-0.14884;0.06283;10.11807;-2.10000;21.70000;-8.22500;-1.45500;0.93000;2.47500
-0.17934;0.02074;10.18212;-1.70625;21.56875;-11.46250;-1.45500;0.93000;2.47500
-0.16592;0.04331;10.15528;-1.96875;21.87500;-18.68125;-1.45500;0.93000;2.47500
-0.15921;0.04941;10.13637;-2.18750;21.74375;-22.22500;-1.45500;0.93000;2.47500
-0.18300;0.02867;10.13332;-2.05625;21.91875;-27.08125;-1.45500;0.93000;2.47500
-0.15006;0.05246;10.13271;-2.23125;22.53125;-32.50625;-1.42500;0.93000;2.52000
-0.16104;0.04880;10.14552;-2.01250;22.00625;-35.56875;-1.42500;0.93000;2.52000
-0.17446;0.00427;10.13942;-1.96875;22.31250;-40.29375;-1.42500;0.93000;2.52000
-0.14518;0.04209;10.10099;-1.66250;21.87500;-47.77500;-1.42500;0.93000;2.52000
-0.19459;0.04819;10.21872;-1.83750;21.78750;-51.97500;-1.42500;0.93000;2.52000
-0.15006;0.05673;10.16382;-0.87500;21.21875;-57.13750;-1.42500;0.93000;2.52000
-0.18056;0.04575;10.15833;-2.36250;22.05000;-60.02500;-1.42500;0.93000;2.52000
-0.16653;0.04270;10.14247;-1.66250;22.05000;-65.62500;-1.42500;0.93000;2.52000
-0.16653;0.03782;10.14674;-1.57500;21.83125;-70.26250;-1.42500;0.93000;2.52000
-0.17629;0.04453;10.15223;-1.57500;21.30625;-74.20000;-1.42500;0.93000;2.52000
-0.13969;0.06954;10.13271;-1.48750;22.13750;-79.40625;-1.44000;0.96000;2.49000
-0.17385;0.03172;10.13393;-1.31250;21.35000;-82.11875;-1.44000;0.96000;2.49000
-0.17568;0.03111;10.15406;-1.75000;22.05000;-87.63125;-1.44000;0.96000;2.49000
-0.14762;0.06527;10.17114;-1.31250;22.00625;-93.88750;-1.44000;0.96000;2.49000
-0.18666;0.03294;10.13332;-1.26875;21.87500;-98.21875;-1.44000;0.96000;2.49000
-0.15799;0.06588;10.12600;-1.00625;21.56875;-103.03125;-1.44000;0.96000;2.49000
-0.17995;0.03355;10.16138;-1.48750;21.39375;-106.83750;-1.44000;0.96000;2.49000
-0.13908;0.06710;10.13881;-1.61875;21.30625;-112.04375;-1.44000;0.96000;2.49000
-0.14396;0.07442;10.14430;-0.91875;21.13125;-115.36875;-1.44000;0.96000;2.49000
-0.17019;0.04514;10.14491;-1.31250;22.05000;-120.75000;-1.44000;0.96000;2.49000
-0.13969;0.06405;10.13881;-1.00625;21.56875;-124.68750;-1.45500;0.97500;2.53500
-0.17141;0.03599;10.16992;-1.09375;22.44375;-127.96875;-1.45500;0.97500;2.53500
-0.15921;0.02135;10.11014;-0.96250;20.95625;-133.74374;-1.45500;0.97500;2.53500
-0.14701;0.05856;10.15223;-0.48125;21.30625;-138.07500;-1.45500;0.97500;2.53500
-0.15616;0.06527;10.14613;-0.61250;21.78750;-143.19376;-1.45500;0.97500;2.53500
-0.16836;0.05185;10.08330;-0.56875;21.26250;-148.39999;-1.45500;0.97500;2.53500
-0.15311;0.05124;10.17358;-0.56875;21.87500;-151.63750;-1.45500;0.97500;2.53500
-0.17141;0.05490;10.14613;-0.52500;21.52500;-156.36250;-1.45500;0.97500;2.53500
-0.14213;0.05917;10.11075;-0.08750;21.52500;-160.12500;-1.45500;0.97500;2.53500
-0.16836;0.01647;10.14552;-0.74375;21.70000;-163.88750;-1.44000;1.00500;2.52000
-0.15067;0.08662;10.17053;-0.56875;21.43750;-168.52499;-1.44000;1.00500;2.52000
-0.18300;0.03843;10.16321;-0.70000;21.70000;-171.93750;-1.44000;1.00500;2.52000
-0.14579;0.07930;10.17907;-0.70000;21.78750;-176.88126;-1.44000;1.00500;2.52000
-0.17324;0.05734;10.17541;-0.48125;21.17500;-179.50626;-1.44000;1.00500;2.52000
-0.17568;0.04636;10.15711;-0.17500;21.56875;-186.72501;-1.44000;1.00500;2.52000
-0.15494;0.05002;10.11624;-0.65625;21.78750;-189.83125;-1.44000;1.00500;2.52000
-0.15311;0.02867;10.17236;-0.52500;21.26250;-193.59375;-1.44000;1.00500;2.52000
-0.12322;0.05795;10.13515;0.04375;21.00000;-198.93124;-1.44000;1.00500;2.52000
-0.13969;0.07808;10.19188;-0.65625;21.00000;-201.29375;-1.44000;1.00500;2.52000
-0.18849;0.03538;10.14491;0.00000;21.70000;-205.14375;-1.44000;1.05000;2.47500
-0.13847;0.04880;10.10404;-0.21875;21.21875;-209.69376;-1.44000;1.05000;2.47500
-0.15128;0.05856;10.16016;-0.04375;20.86875;-212.23125;-1.44000;1.05000;2.47500
-0.15799;0.06344;10.16321;-0.04375;20.86875;-216.51875;-1.44000;1.05000;2.47500
-0.17141;0.06893;10.15040;0.00000;21.04375;-220.10625;-1.44000;1.05000;2.47500
-0.15738;0.05124;10.13210;0.30625;20.82500;-223.43124;-1.44000;1.05000;2.47500
-0.14457;0.07442;10.18395;0.04375;21.08750;-229.42500;-1.44000;1.05000;2.47500
-0.16714;0.06405;10.15162;-0.35000;21.00000;-232.18124;-1.44000;1.05000;2.47500
-0.16836;0.02501;10.12234;0.17500;21.48125;-235.24374;-1.44000;1.05000;2.47500
-0.14213;0.06161;10.15650;0.48125;20.78125;-240.01250;-1.44000;1.05000;2.47500
-0.15738;0.04636;10.11441;0.26250;21.48125;-243.16251;-1.36500;1.06500;2.52000
-0.16043;0.07076;10.17114;0.48125;20.08125;-247.23125;-1.36500;1.06500;2.52000
-0.16165;0.05734;10.12295;-0.26250;21.17500;-249.68124;-1.36500;1.06500;2.52000
-0.13298;0.05978;10.13393;-0.04375;21.00000;-251.78125;-1.36500;1.06500;2.52000
-0.17263;0.03416;10.14064;0.21875;21.35000;-256.33124;-1.36500;1.06500;2.52000
-0.14701;0.06771;10.14857;0.87500;21.17500;-260.39999;-1.36500;1.06500;2.52000
-0.14030;0.06588;10.13942;0.30625;20.43125;-263.54999;-1.36500;1.06500;2.52000
-0.17141;0.05612;10.16199;0.43750;21.21875;-267.18124;-1.36500;1.06500;2.52000
-0.16348;0.06344;10.16138;0.17500;21.26250;-270.94376;-1.36500;1.06500;2.52000
-0.11102;0.09089;10.15894;0.96250;20.95625;-274.48749;-1.30500;1.17000;2.53500
-0.16653;0.06649;10.14247;0.26250;21.08750;-275.88751;-1.30500;1.17000;2.53500
-0.17873;0.07137;10.14125;0.96250;20.47500;-279.29999;-1.30500;1.17000;2.53500
-0.12749;0.07076;10.13454;0.56875;20.69375;-283.36874;-1.30500;1.17000;2.53500
-0.15799;0.07686;10.14186;0.74375;20.43125;-284.98749;-1.30500;1.17000;2.53500
-0.17324;0.05429;10.15467;0.87500;21.17500;-288.44376;-1.30500;1.17000;2.53500
-0.12932;0.08723;10.12905;0.21875;20.78125;-291.50626;-1.30500;1.17000;2.53500
-0.17141;0.04514;10.14674;0.78750;20.95625;-292.11874;-1.30500;1.17000;2.53500
-0.15189;0.06466;10.16443;0.91875;20.73750;-298.89999;-1.30500;1.17000;2.53500
-0.13298;0.08723;10.14125;0.78750;20.60625;-299.42499;-1.30500;1.17000;2.53500
-0.15982;0.06161;10.12356;0.96250;21.30625;-303.05624;-1.26000;1.30500;2.55000
-0.12383;0.07930;10.16687;0.96250;21.08750;-307.16876;-1.26000;1.30500;2.55000
-0.14152;0.09394;10.13576;0.26250;20.16875;-307.16876;-1.26000;1.30500;2.55000
-0.17568;0.04880;10.15223;1.31250;20.91250;-310.58124;-1.26000;1.30500;2.55000
-0.11712;0.08357;10.12722;0.96250;20.51875;-314.25626;-1.26000;1.30500;2.55000
-0.14274;0.07991;10.19554;1.00625;20.56250;-314.51874;-1.26000;1.30500;2.55000
-0.12871;0.08235;10.16931;1.18125;20.60625;-318.89374;-1.26000;1.30500;2.55000
-0.14457;0.08784;10.15955;0.91875;20.86875;-319.46249;-1.26000;1.30500;2.55000
-0.13054;0.08662;10.11136;0.43750;21.39375;-322.83124;-1.26000;1.30500;2.55000
-0.16165;0.05429;10.11197;0.78750;20.73750;-326.54999;-1.26000;1.30500;2.55000
-0.13603;0.08296;10.14918;1.22500;21.08750;-327.42499;-1.21500;1.35000;2.55000
-0.14396;0.07686;10.18517;1.00625;20.78125;-329.65625;-1.21500;1.35000;2.55000
-0.12261;0.08357;10.12112;0.91875;20.47500;-331.62500;-1.21500;1.35000;2.55000
-0.17263;0.07198;10.14247;1.00625;20.12500;-332.58749;-1.21500;1.35000;2.55000
-0.13603;0.07137;10.13393;1.05000;20.47500;-336.70001;-1.21500;1.35000;2.55000
-0.13725;0.11712;10.17175;0.83125;21.35000;-337.66251;-1.21500;1.35000;2.55000
-0.12810;0.08113;10.12295;1.61875;20.47500;-338.93124;-1.21500;1.35000;2.55000
-0.13786;0.06405;10.14552;1.09375;20.69375;-340.94376;-1.21500;1.35000;2.55000
-0.15494;0.06954;10.15711;1.66250;20.34375;-342.64999;-1.21500;1.35000;2.55000
-0.13237;0.07564;10.16626;1.05000;20.73750;-345.53751;-1.17000;1.39500;2.55000
-0.11529;0.10919;10.11563;1.40000;20.56250;-345.84375;-1.17000;1.39500;2.55000
-0.15799;0.09211;10.15711;1.53125;21.13125;-349.38751;-1.17000;1.39500;2.55000
-0.12505;0.08174;10.16748;1.40000;20.73750;-349.16876;-1.17000;1.39500;2.55000
-0.14579;0.06588;10.14247;1.66250;21.08750;-350.74374;-1.17000;1.39500;2.55000
-0.11712;0.11651;10.15894;1.00625;20.38750;-352.88751;-1.17000;1.39500;2.55000
-0.17080;0.09333;10.17175;1.48750;20.69375;-352.75626;-1.17000;1.39500;2.55000
-0.10736;0.07869;10.15955;1.00625;20.65000;-356.29999;-1.17000;1.39500;2.55000
-0.17080;0.07320;10.13515;1.70625;20.43125;-355.73126;-1.17000;1.39500;2.55000
-0.13908;0.08784;10.13515;1.35625;21.17500;-357.26251;-1.17000;1.39500;2.55000
-0.13481;0.08357;10.12417;1.53125;20.95625;-358.75000;-1.09500;1.45500;2.58000
-0.14884;0.08540;10.13332;1.57500;20.60625;-360.58749;-1.09500;1.45500;2.58000
-0.13115;0.12383;10.13942;1.48750;20.34375;-361.72501;-1.09500;1.45500;2.58000
-0.14640;0.06405;10.11990;1.83750;20.51875;-361.63751;-1.09500;1.45500;2.58000
-0.14091;0.08784;10.13698;1.48750;20.69375;-364.39374;-1.09500;1.45500;2.58000
-0.15494;0.09333;10.17724;1.57500;21.00000;-363.43124;-1.09500;1.45500;2.58000
-0.13420;0.09638;10.15589;1.35625;21.17500;-364.39374;-1.09500;1.45500;2.58000
-0.10797;0.10248;10.15162;0.87500;20.34375;-365.39999;-1.09500;1.45500;2.58000
-0.12993;0.08784;10.13210;1.44375;20.16875;-365.96875;-1.09500;1.45500;2.58000
-0.13054;0.07686;10.12783;1.66250;20.38750;-366.84375;-1.09500;1.45500;2.58000
-0.13847;0.09455;10.18334;1.09375;20.78125;-366.97501;-1.03500;1.53000;2.62500
-0.13115;0.08784;10.14186;1.96875;20.38750;-367.71875;-1.03500;1.53000;2.62500
-0.13969;0.07503;10.15711;1.44375;20.73750;-369.64374;-1.03500;1.53000;2.62500
-0.12993;0.10797;10.17724;1.00625;21.00000;-367.71875;-1.03500;1.53000;2.62500
-0.12810;0.08784;10.09550;1.66250;20.34375;-368.85626;-1.03500;1.53000;2.62500
-0.13359;0.09211;10.13881;1.66250;20.03750;-369.11874;-1.03500;1.53000;2.62500
-0.12993;0.09150;10.15772;1.61875;20.21250;-369.25000;-1.03500;1.53000;2.62500
-0.12261;0.09089;10.11136;1.53125;20.21250;-370.03751;-1.03500;1.53000;2.62500
-0.11407;0.10858;10.15955;1.31250;21.04375;-368.72501;-1.03500;1.53000;2.62500
-0.12322;0.07442;10.13942;1.75000;20.60625;-369.07501;-1.03500;1.53000;2.62500
-0.12200;0.10675;10.15040;1.44375;21.04375;-369.73126;-0.96000;1.57500;2.65500
-0.13176;0.08784;10.13454;1.66250;20.38750;-369.38126;-0.96000;1.57500;2.65500
-0.14091;0.11712;10.17724;1.61875;19.99375;-370.03751;-0.96000;1.57500;2.65500
-0.13237;0.14213;10.18700;1.44375;20.51875;-368.89999;-0.96000;1.57500;2.65500
-0.12810;0.08845;10.15284;1.31250;20.73750;-367.28125;-0.96000;1.57500;2.65500
-0.13298;0.08784;10.15040;1.70625;20.78125;-368.54999;-0.96000;1.57500;2.65500
-0.11895;0.11102;10.15345;1.26875;20.30000;-369.20624;-0.96000;1.57500;2.65500
-0.11285;0.10492;10.14247;1.09375;20.78125;-367.19376;-0.96000;1.57500;2.65500
-0.12139;0.11346;10.21201;1.18125;20.56250;-367.50000;-0.96000;1.57500;2.65500
-0.10492;0.10858;10.12722;1.40000;20.56250;-367.06250;-0.88500;1.63500;2.62500
-0.14884;0.10065;10.16809;1.53125;20.56250;-364.65625;-0.88500;1.63500;2.62500
-0.10431;0.09455;10.09977;1.57500;20.86875;-365.57501;-0.88500;1.63500;2.62500
-0.11956;0.09577;10.16809;1.18125;20.60625;-363.86874;-0.88500;1.63500;2.62500
-0.11285;0.10065;10.11380;1.48750;20.60625;-361.85626;-0.88500;1.63500;2.62500
-0.10675;0.10248;10.12661;1.53125;20.78125;-362.95001;-0.88500;1.63500;2.62500
-0.12810;0.09211;10.14430;1.70625;20.65000;-360.76251;-0.88500;1.63500;2.62500
-0.13969;0.08906;10.14552;1.31250;21.17500;-361.24374;-0.88500;1.63500;2.62500
-0.11285;0.11468;10.16138;1.44375;20.86875;-359.40625;-0.88500;1.63500;2.62500
-0.11956;0.11529;10.16748;1.57500;20.73750;-357.78751;-0.88500;1.63500;2.62500
-0.10309;0.08296;10.15833;1.18125;20.16875;-358.39999;-0.84000;1.69500;2.62500
-0.07442;0.11041;10.15894;1.44375;20.43125;-356.34375;-0.84000;1.69500;2.62500
-0.12932;0.09699;10.14552;1.31250;20.73750;-355.16251;-0.84000;1.69500;2.62500
-0.09211;0.10248;10.13515;1.31250;20.91250;-353.32501;-0.84000;1.69500;2.62500
-0.10553;0.10736;10.14918;1.35625;20.73750;-351.61874;-0.84000;1.69500;2.62500
-0.12810;0.10919;10.15650;0.91875;20.65000;-350.87500;-0.84000;1.69500;2.62500
-0.13176;0.13054;10.16992;1.57500;20.78125;-348.29376;-0.84000;1.69500;2.62500
-0.11285;0.06710;10.11563;1.26875;20.91250;-346.36874;-0.84000;1.69500;2.62500
-0.10675;0.09516;10.13942;1.57500;20.34375;-346.89374;-0.84000;1.69500;2.62500
-0.10919;0.12444;10.18761;1.05000;20.47500;-342.95624;-0.84000;1.69500;2.62500
-0.11590;0.09150;10.11746;1.61875;20.56250;-342.47501;-0.72000;1.75500;2.62500
-0.08845;0.13054;10.17480;1.35625;21.43750;-341.46875;-0.72000;1.75500;2.62500
-0.11590;0.09516;10.16138;1.44375;20.60625;-337.61874;-0.72000;1.75500;2.62500
-0.12932;0.08906;10.12234;1.18125;20.82500;-337.66251;-0.72000;1.75500;2.62500
-0.09760;0.10126;10.10892;1.61875;20.47500;-332.58749;-0.72000;1.75500;2.62500
-0.15250;0.09211;10.16321;1.92500;21.26250;-332.76251;-0.72000;1.75500;2.62500
-0.09211;0.13176;10.12966;0.87500;20.30000;-331.36249;-0.72000;1.75500;2.62500
-0.10980;0.09516;10.12173;1.26875;20.51875;-327.25000;-0.72000;1.75500;2.62500
-0.12688;0.10309;10.15589;1.88125;20.91250;-327.20624;-0.72000;1.75500;2.62500
-0.07991;0.13176;10.20835;1.44375;21.17500;-324.71249;-0.63000;1.78500;2.59500
-0.09943;0.10309;10.16260;1.09375;21.48125;-321.25626;-0.63000;1.78500;2.59500
-0.10919;0.08113;10.15284;1.22500;20.86875;-320.03125;-0.63000;1.78500;2.59500
-0.07137;0.14030;10.19310;1.53125;20.82500;-318.19376;-0.63000;1.78500;2.59500
-0.09516;0.09089;10.15101;1.35625;21.30625;-314.60626;-0.63000;1.78500;2.59500
-0.11163;0.10675;10.13942;0.30625;20.69375;-311.50000;-0.63000;1.78500;2.59500
-0.11834;0.08845;10.13515;1.35625;21.48125;-309.09375;-0.63000;1.78500;2.59500
-0.08296;0.11712;10.15406;0.61250;21.00000;-305.98749;-0.63000;1.78500;2.59500
-0.12383;0.08723;10.15162;0.83125;20.78125;-303.71249;-0.63000;1.78500;2.59500
-0.08906;0.12261;10.14003;0.39375;20.69375;-302.22501;-0.63000;1.78500;2.59500
-0.08906;0.11529;10.18090;1.09375;20.78125;-298.50626;-0.57000;1.83000;2.61000
-0.11346;0.09821;10.15650;0.70000;21.39375;-295.31250;-0.57000;1.83000;2.61000
-0.09150;0.12932;10.15406;1.22500;21.13125;-294.13126;-0.57000;1.83000;2.61000
-0.06832;0.08601;10.13942;1.26875;21.08750;-291.06876;-0.57000;1.83000;2.61000
-0.09150;0.12932;10.17114;0.56875;20.69375;-287.17499;-0.57000;1.83000;2.61000
-0.10553;0.09516;10.16870;0.74375;20.95625;-285.11874;-0.57000;1.83000;2.61000
-0.09089;0.10370;10.09733;0.83125;20.78125;-280.91876;-0.57000;1.83000;2.61000
-0.09699;0.11285;10.10526;0.39375;20.86875;-277.76874;-0.57000;1.83000;2.61000
-0.08418;0.11407;10.18395;0.61250;20.43125;-273.78751;-0.57000;1.83000;2.61000
-0.09455;0.08662;10.13759;0.87500;21.13125;-271.90625;-0.57000;1.83000;2.61000
-0.07503;0.09821;10.12722;0.61250;21.17500;-268.40625;-0.46500;1.86000;2.62500
-0.10309;0.11102;10.13454;0.91875;21.30625;-264.68750;-0.46500;1.86000;2.62500
-0.07381;0.12993;10.15467;0.43750;20.60625;-263.54999;-0.46500;1.86000;2.62500
-0.07137;0.09699;10.15467;0.70000;20.91250;-259.52499;-0.46500;1.86000;2.62500
-0.09150;0.06710;10.11868;0.56875;21.43750;-255.50000;-0.46500;1.86000;2.62500
-0.06588;0.12566;10.09367;0.87500;21.08750;-252.39375;-0.46500;1.86000;2.62500
-0.10004;0.11712;10.14430;0.17500;20.82500;-248.28125;-0.46500;1.86000;2.62500
-0.07320;0.10431;10.15162;-0.04375;21.26250;-243.99374;-0.46500;1.86000;2.62500
-0.10370;0.10797;10.12356;0.26250;21.13125;-241.10625;-0.46500;1.86000;2.62500
-0.09089;0.09821;10.14003;0.56875;20.78125;-236.99374;-0.46500;1.86000;2.62500
-0.10736;0.09455;10.14430;0.00000;21.08750;-234.14999;-0.39000;1.89000;2.64000
-0.06710;0.11041;10.15772;0.21875;20.69375;-230.34375;-0.39000;1.89000;2.64000
-0.09638;0.10370;10.14369;-0.04375;20.56250;-226.05624;-0.39000;1.89000;2.64000
-0.05917;0.10675;10.16199;0.08750;21.13125;-223.30000;-0.39000;1.89000;2.64000
-0.08113;0.09638;10.13637;0.00000;20.73750;-219.75626;-0.39000;1.89000;2.64000
-0.06893;0.11163;10.14186;-0.04375;21.13125;-216.47501;-0.39000;1.89000;2.64000
-0.08418;0.11163;10.12966;0.39375;20.60625;-210.04375;-0.39000;1.89000;2.64000
-0.07930;0.09394;10.14796;-0.08750;21.08750;-206.63126;-0.39000;1.89000;2.64000
-0.06100;0.11102;10.11502;0.04375;21.13125;-203.04375;-0.39000;1.89000;2.64000
-0.10309;0.10675;10.13149;-0.04375;21.43750;-199.54375;-0.31500;1.92000;2.64000
-0.06710;0.12017;10.13576;0.00000;21.08750;-196.26250;-0.31500;1.92000;2.64000
-0.05612;0.09516;10.15162;-0.70000;21.17500;-190.26875;-0.31500;1.92000;2.64000
-0.10675;0.11773;10.18090;0.04375;21.21875;-187.11874;-0.31500;1.92000;2.64000
-0.05368;0.13542;10.16992;-0.39375;21.52500;-184.10001;-0.31500;1.92000;2.64000
-0.06161;0.07198;10.10953;-0.52500;21.48125;-179.15625;-0.31500;1.92000;2.64000
-0.06954;0.09394;10.16443;0.21875;21.48125;-175.87500;-0.31500;1.92000;2.64000
-0.07137;0.09455;10.14369;-0.26250;21.56875;-171.32500;-0.31500;1.92000;2.64000
-0.07869;0.10736;10.13027;-0.13125;21.48125;-166.73125;-0.31500;1.92000;2.64000
-0.04636;0.11285;10.15528;-0.52500;21.61250;-160.86874;-0.31500;1.92000;2.64000
-0.10431;0.05978;10.11502;-0.08750;21.30625;-156.88750;-0.25500;1.87500;2.59500
-0.07564;0.10309;10.11929;-0.56875;21.65625;-154.13126;-0.25500;1.87500;2.59500
-0.07564;0.10553;10.16321;-0.56875;21.39375;-148.83749;-0.25500;1.87500;2.59500
-0.09089;0.07869;10.14857;-0.43750;21.83125;-144.72501;-0.25500;1.87500;2.59500
-0.06832;0.13176;10.18090;-0.74375;21.61250;-141.31250;-0.25500;1.87500;2.59500
-0.06771;0.10797;10.12661;-0.70000;21.30625;-135.80000;-0.25500;1.87500;2.59500
-0.07625;0.10004;10.16199;-0.83125;21.21875;-132.91251;-0.25500;1.87500;2.59500
-0.04819;0.12627;10.12966;-0.74375;22.26875;-129.67500;-0.25500;1.87500;2.59500
-0.07198;0.12017;10.16077;-1.00625;21.83125;-121.05625;-0.25500;1.87500;2.59500
-0.08479;0.09150;10.14735;-0.61250;21.39375;-118.21250;-0.25500;1.87500;2.59500
-0.07625;0.10309;10.14552;-0.65625;21.65625;-113.09375;-0.22500;1.86000;2.59500
-0.06161;0.10126;10.13576;-1.00625;21.35000;-109.72500;-0.22500;1.86000;2.59500
-0.07137;0.09943;10.16138;-1.22500;21.65625;-104.08125;-0.22500;1.86000;2.59500
-0.09028;0.10980;10.15284;-0.96250;21.00000;-101.36875;-0.22500;1.86000;2.59500
-0.05551;0.11346;10.14979;-0.96250;21.52500;-95.76875;-0.22500;1.86000;2.59500
-0.08723;0.10004;10.16138;-1.57500;21.83125;-91.08750;-0.22500;1.86000;2.59500
-0.05307;0.11773;10.14796;-0.96250;22.79375;-87.19375;-0.22500;1.86000;2.59500
-0.08967;0.08479;10.13698;-1.09375;21.39375;-82.07500;-0.22500;1.86000;2.59500
-0.04453;0.12383;10.17297;-0.83125;21.74375;-78.79375;-0.22500;1.86000;2.59500
-0.05490;0.11041;10.14430;-1.31250;21.70000;-70.48125;-0.21000;1.90500;2.62500
-0.07381;0.11163;10.14979;-1.31250;22.00625;-66.67500;-0.21000;1.90500;2.62500
-0.08845;0.11224;10.19737;-1.57500;22.44375;-62.25625;-0.21000;1.90500;2.62500
-0.06344;0.10736;10.14979;-1.70625;21.39375;-58.31875;-0.21000;1.90500;2.62500
-0.04392;0.08601;10.14308;-1.40000;21.35000;-53.24375;-0.21000;1.90500;2.62500
-0.07686;0.10736;10.13149;-0.78750;21.43750;-48.60625;-0.21000;1.90500;2.62500
-0.07564;0.08479;10.11807;-1.18125;21.83125;-45.19375;-0.21000;1.90500;2.62500
-0.04880;0.11102;10.17541;-1.92500;22.18125;-39.59375;-0.21000;1.90500;2.62500
-0.07137;0.08357;10.12844;-1.88125;22.26875;-35.08750;-0.21000;1.90500;2.62500
-0.08113;0.09638;10.14613;-1.96875;22.18125;-31.28125;-0.21000;1.90500;2.62500
-0.03660;0.09150;10.11136;-2.18750;22.05000;-24.06250;-0.18000;1.87500;2.70000
-0.07503;0.08296;10.14247;-2.10000;21.74375;-18.50625;-0.18000;1.87500;2.70000
-0.07137;0.07137;10.14674;-1.61875;22.13750;-15.09375;-0.18000;1.87500;2.70000
-0.05612;0.10797;10.15711;-2.01250;21.96250;-10.01875;-0.18000;1.87500;2.70000
-0.06527;0.11041;10.15650;-2.05625;22.40000;-5.99375;-0.18000;1.87500;2.70000
-0.08601;0.08296;10.17602;-2.53750;22.13750;-0.52500;-0.18000;1.87500;2.70000
-0.07259;0.09028;10.11807;-2.05625;22.44375;3.15000;-0.18000;1.87500;2.70000
-0.03965;0.12871;10.14247;-1.70625;21.74375;8.13750;-0.18000;1.87500;2.70000
-0.10919;0.06893;10.13210;-2.58125;22.18125;13.69375;-0.18000;1.87500;2.70000
-0.03904;0.10065;10.13149;-2.14375;21.87500;15.88125;-0.18000;1.87500;2.70000
-0.09577;0.10492;10.15223;-2.40625;22.53125;21.96250;-0.18000;1.83000;2.71500
-0.08357;0.07930;10.13942;-2.71250;22.40000;27.86875;-0.18000;1.83000;2.71500
-0.04880;0.09699;10.16992;-2.18750;21.87500;32.02500;-0.18000;1.83000;2.71500
-0.07259;0.10858;10.15650;-2.27500;22.40000;37.66875;-0.18000;1.83000;2.71500
-0.05917;0.09821;10.15101;-2.66875;21.96250;42.00000;-0.18000;1.83000;2.71500
-0.05795;0.10858;10.20347;-2.45000;22.92500;46.76875;-0.18000;1.83000;2.71500
-0.05002;0.10004;10.12295;-3.06250;22.35625;51.62500;-0.18000;1.83000;2.71500
-0.09028;0.10370;10.14247;-2.84375;22.35625;56.83125;-0.18000;1.83000;2.71500
-0.05185;0.10370;10.14003;-2.62500;22.53125;60.33125;-0.18000;1.83000;2.71500
-0.04270;0.09455;10.11746;-3.15000;22.22500;65.10000;-0.18000;1.83000;2.71500
-0.08418;0.09760;10.17236;-2.71250;21.65625;69.95625;-0.13500;1.89000;2.65500
-0.06527;0.11651;10.13820;-2.75625;22.26875;76.47500;-0.13500;1.89000;2.65500
-0.05429;0.09394;10.15284;-2.84375;22.57500;81.20000;-0.13500;1.89000;2.65500
-0.07747;0.08052;10.13271;-3.28125;22.83750;85.57500;-0.13500;1.89000;2.65500
-0.07686;0.12383;10.18883;-2.84375;22.22500;89.99375;-0.13500;1.89000;2.65500
-0.05246;0.09272;10.15589;-3.06250;22.66250;94.71875;-0.13500;1.89000;2.65500
-0.07381;0.11163;10.17358;-2.58125;22.53125;98.83125;-0.13500;1.89000;2.65500
-0.07015;0.06832;10.11197;-3.85000;22.26875;103.42500;-0.13500;1.89000;2.65500
-0.09272;0.10309;10.17053;-2.84375;22.22500;108.28125;-0.13500;1.89000;2.65500
-0.04575;0.09089;10.11807;-3.41250;22.53125;111.43125;-0.15000;1.89000;2.64000
-0.04392;0.10797;10.19676;-3.80625;22.53125;116.55000;-0.15000;1.89000;2.64000
-0.09943;0.10370;10.12661;-3.89375;22.88125;121.62500;-0.15000;1.89000;2.64000
-0.07137;0.09028;10.14613;-3.32500;23.10000;126.91875;-0.15000;1.89000;2.64000
-0.05429;0.10492;10.13210;-3.89375;22.96875;132.78125;-0.15000;1.89000;2.64000
-0.08601;0.08662;10.14308;-3.10625;22.61875;136.10625;-0.15000;1.89000;2.64000
-0.05856;0.12261;10.15467;-3.76250;22.09375;140.13126;-0.15000;1.89000;2.64000
-0.08418;0.08235;10.15650;-3.41250;22.66250;145.64375;-0.15000;1.89000;2.64000
-0.07991;0.07869;10.12112;-3.45625;22.92500;148.92500;-0.15000;1.89000;2.64000
-0.05917;0.10309;10.09916;-3.01875;22.61875;153.34375;-0.15000;1.89000;2.64000
-0.11041;0.08540;10.15040;-3.93750;21.91875;159.03125;-0.22500;1.89000;2.64000
-0.07442;0.09638;10.10038;-4.11250;22.66250;160.38750;-0.22500;1.89000;2.64000
-0.06100;0.10919;10.13881;-3.80625;22.66250;166.25000;-0.22500;1.89000;2.64000
-0.10431;0.10431;10.17785;-3.54375;23.05625;172.72501;-0.22500;1.89000;2.64000
-0.07320;0.08479;10.12783;-3.98125;22.70625;176.26875;-0.22500;1.89000;2.64000
-0.08113;0.08052;10.14857;-3.89375;22.70625;180.16251;-0.22500;1.89000;2.64000
-0.06161;0.11590;10.15711;-4.15625;22.96875;184.66875;-0.22500;1.89000;2.64000
-0.07503;0.10675;10.16260;-3.76250;22.79375;189.17500;-0.22500;1.89000;2.64000
-0.07259;0.09089;10.14064;-3.80625;22.53125;192.32500;-0.22500;1.89000;2.64000
-0.05734;0.08967;10.11807;-4.76875;22.26875;196.78751;-0.22500;1.89000;2.64000
-0.08845;0.10492;10.17480;-4.46250;23.10000;201.07500;-0.27000;1.90500;2.65500
-0.07869;0.09577;10.13820;-4.06875;22.79375;204.22501;-0.27000;1.90500;2.65500
-0.05307;0.12505;10.14857;-4.46250;23.14375;208.46875;-0.27000;1.90500;2.65500
-0.11895;0.07808;10.14979;-3.71875;21.87500;213.19376;-0.27000;1.90500;2.65500
-0.04514;0.11224;10.17358;-4.50625;22.79375;218.39999;-0.27000;1.90500;2.65500
-0.07991;0.10797;10.16504;-4.46250;23.14375;222.60001;-0.27000;1.90500;2.65500
-0.07564;0.11468;10.13759;-4.63750;23.23125;225.75000;-0.27000;1.90500;2.65500
-0.07869;0.09577;10.12905;-4.46250;22.57500;230.21249;-0.27000;1.90500;2.65500
-0.07320;0.11651;10.15101;-4.94375;23.27500;234.01875;-0.27000;1.90500;2.65500
-0.07686;0.11102;10.15162;-4.63750;22.61875;237.64999;-0.30000;1.90500;2.67000
-0.08235;0.09638;10.10953;-4.90000;23.01250;240.45000;-0.30000;1.90500;2.67000
-0.08052;0.09882;10.11868;-4.63750;23.18750;243.90625;-0.30000;1.90500;2.67000
-0.07625;0.10126;10.15406;-4.90000;23.05625;248.76250;-0.30000;1.90500;2.67000
-0.07320;0.11529;10.15833;-4.90000;22.96875;251.73750;-0.30000;1.90500;2.67000
-0.07625;0.11651;10.11807;-5.38125;23.53750;257.11874;-0.30000;1.90500;2.67000
-0.07686;0.11224;10.15833;-4.72500;23.05625;261.14374;-0.30000;1.90500;2.67000
-0.11041;0.10858;10.12356;-4.72500;23.10000;263.46249;-0.30000;1.90500;2.67000
-0.06710;0.10919;10.14491;-4.98750;23.01250;268.36249;-0.30000;1.90500;2.67000
-0.09333;0.09028;10.13637;-5.16250;22.66250;270.68124;-0.30000;1.90500;2.67000
-0.06954;0.10980;10.12356;-5.73125;22.96875;273.48126;-0.31500;1.90500;2.65500
-0.10248;0.11285;10.16992;-5.07500;23.14375;278.42499;-0.31500;1.90500;2.65500
-0.06710;0.09882;10.12966;-4.98750;23.14375;280.39374;-0.31500;1.90500;2.65500
-0.09882;0.11468;10.15284;-4.94375;23.36250;283.89374;-0.31500;1.90500;2.65500
-0.08052;0.10370;10.16016;-5.11875;23.14375;285.99374;-0.31500;1.90500;2.65500
-0.06039;0.11468;10.14857;-5.16250;23.05625;290.58749;-0.31500;1.90500;2.65500
-0.10614;0.08601;10.13881;-5.16250;22.88125;295.53125;-0.31500;1.90500;2.65500
-0.08967;0.08296;10.14003;-5.33750;23.23125;296.53751;-0.31500;1.90500;2.65500
-0.10004;0.10675;10.16565;-4.94375;23.18750;301.65625;-0.31500;1.90500;2.65500
-0.08967;0.10614;10.17419;-5.29375;23.58125;303.45001;-0.31500;1.90500;2.65500
-0.05856;0.10980;10.13149;-5.55625;23.40625;306.68750;-0.37500;1.86000;2.68500
-0.09333;0.09577;10.15528;-5.29375;23.36250;309.96875;-0.37500;1.86000;2.68500
-0.09943;0.10248;10.10465;-5.77500;24.23750;312.41876;-0.37500;1.86000;2.68500
-0.09760;0.11285;10.11746;-5.38125;23.66875;315.87500;-0.37500;1.86000;2.68500
-0.10126;0.10797;10.14125;-5.46875;23.31875;319.06876;-0.37500;1.86000;2.68500
-0.08052;0.12871;10.15894;-5.42500;23.14375;319.98749;-0.37500;1.86000;2.68500
-0.09089;0.10065;10.08757;-5.07500;23.18750;325.50000;-0.37500;1.86000;2.68500
-0.09882;0.08113;10.14735;-5.73125;22.88125;327.11874;-0.37500;1.86000;2.68500
-0.08296;0.12932;10.13210;-5.46875;23.45000;330.53125;-0.37500;1.86000;2.68500
-0.12200;0.08235;10.11380;-5.25000;23.14375;332.93750;-0.37500;1.86000;2.68500
-0.04880;0.12505;10.14003;-5.86250;23.40625;334.33749;-0.48000;1.83000;2.65500
-0.12017;0.08662;10.11563;-5.03125;23.40625;338.45001;-0.48000;1.83000;2.65500
-0.11285;0.09272;10.10892;-5.38125;23.53750;338.93124;-0.48000;1.83000;2.65500
-0.06588;0.12383;10.15772;-5.81875;22.83750;342.69376;-0.48000;1.83000;2.65500
-0.13847;0.11346;10.20103;-5.38125;23.01250;344.83749;-0.48000;1.83000;2.65500
-0.08479;0.09028;10.11380;-5.51250;23.58125;346.14999;-0.48000;1.83000;2.65500
-0.09150;0.10004;10.14674;-5.42500;23.71250;349.16876;-0.48000;1.83000;2.65500
-0.10614;0.08967;10.12722;-5.38125;23.62500;352.66876;-0.48000;1.83000;2.65500
-0.11651;0.11102;10.14369;-6.38750;23.58125;353.01874;-0.48000;1.83000;2.65500
-0.09638;0.09943;10.11014;-5.42500;22.92500;356.56250;-0.55500;1.81500;2.64000
-0.11468;0.11102;10.17724;-6.21250;24.41250;357.26251;-0.55500;1.81500;2.64000
-0.11773;0.12078;10.16931;-5.73125;23.18750;359.53751;-0.55500;1.81500;2.64000
-0.09882;0.08723;10.14552;-5.95000;23.88750;361.68124;-0.55500;1.81500;2.64000
-0.12078;0.10492;10.13454;-5.90625;23.66875;363.08124;-0.55500;1.81500;2.64000
-0.11773;0.12627;10.15894;-6.03750;23.31875;364.91876;-0.55500;1.81500;2.64000
-0.10431;0.09699;10.11868;-5.90625;23.05625;367.32501;-0.55500;1.81500;2.64000
-0.10492;0.09577;10.18212;-5.60000;23.53750;368.28751;-0.55500;1.81500;2.64000
-0.09150;0.12688;10.16687;-6.25625;23.49375;372.00626;-0.55500;1.81500;2.64000
-0.12444;0.09028;10.15223;-6.08125;23.23125;373.01251;-0.55500;1.81500;2.64000
-0.09394;0.10431;10.14369;-6.12500;23.66875;374.28125;-0.66000;1.80000;2.62500
-0.13359;0.08296;10.15833;-6.21250;23.62500;376.25000;-0.66000;1.80000;2.62500
-0.10492;0.10187;10.12844;-5.77500;23.71250;376.46875;-0.66000;1.80000;2.62500
-0.12505;0.08967;10.13942;-6.03750;23.75625;379.04999;-0.66000;1.80000;2.62500
-0.10614;0.11590;10.15284;-6.16875;23.27500;379.22501;-0.66000;1.80000;2.62500
-0.12383;0.08784;10.15650;-6.78125;24.45625;380.88751;-0.66000;1.80000;2.62500
-0.09760;0.12200;10.14491;-6.34375;23.93125;382.20001;-0.66000;1.80000;2.62500
-0.11590;0.10675;10.14796;-5.95000;23.71250;382.98749;-0.66000;1.80000;2.62500
-0.09882;0.06588;10.12905;-6.16875;23.62500;384.56250;-0.66000;1.80000;2.62500
-0.11895;0.10675;10.14125;-5.55625;23.97500;384.47501;-0.66000;1.80000;2.62500
-0.08357;0.11346;10.16443;-5.99375;23.40625;386.70624;-0.72000;1.75500;2.61000
-0.13603;0.07869;10.15162;-6.03750;23.31875;387.01251;-0.72000;1.75500;2.61000
-0.10492;0.13237;10.17663;-6.16875;23.88750;387.01251;-0.72000;1.75500;2.61000
-0.12627;0.09455;10.10404;-6.47500;23.66875;389.50626;-0.72000;1.75500;2.61000
-0.12505;0.11407;10.16138;-6.03750;23.18750;389.54999;-0.72000;1.75500;2.61000
-0.10065;0.09821;10.16565;-5.51250;23.40625;390.07501;-0.72000;1.75500;2.61000
-0.15128;0.10187;10.11929;-5.86250;23.75625;391.60626;-0.72000;1.75500;2.61000
-0.12017;0.10126;10.12539;-6.03750;23.36250;391.34375;-0.72000;1.75500;2.61000
-0.09516;0.07991;10.13576;-6.65000;23.40625;391.34375;-0.72000;1.75500;2.61000
-0.11529;0.11529;10.17358;-6.78125;24.15000;392.43750;-0.78000;1.66500;2.59500
-0.11712;0.12993;10.15101;-6.12500;23.84375;393.31250;-0.78000;1.66500;2.59500
-0.12383;0.08174;10.15528;-6.51875;23.93125;392.87500;-0.78000;1.66500;2.59500
-0.10065;0.09394;10.13698;-6.43125;23.18750;393.61874;-0.78000;1.66500;2.59500
-0.14823;0.08967;10.12844;-6.56250;23.23125;393.35626;-0.78000;1.66500;2.59500
-0.11163;0.13237;10.17968;-6.60625;23.53750;391.56250;-0.78000;1.66500;2.59500
-0.10553;0.11468;10.14918;-6.65000;24.15000;395.06250;-0.78000;1.66500;2.59500
-0.15311;0.07259;10.13698;-6.91250;23.84375;394.88751;-0.78000;1.66500;2.59500
-0.13237;0.09821;10.16748;-6.25625;23.84375;392.30624;-0.78000;1.66500;2.59500
-0.11346;0.11041;10.14613;-5.68750;23.31875;392.78751;-0.78000;1.66500;2.59500
-0.14640;0.07259;10.15223;-6.47500;23.23125;394.23126;-0.90000;1.60500;2.56500
-0.14274;0.09882;10.12417;-6.38750;23.10000;392.61249;-0.90000;1.60500;2.56500
-0.09882;0.09943;10.14613;-6.51875;23.49375;392.74374;-0.90000;1.60500;2.56500
-0.14823;0.08662;10.15284;-6.03750;23.36250;393.00626;-0.90000;1.60500;2.56500
-0.10553;0.11346;10.12295;-6.12500;23.05625;390.99374;-0.90000;1.60500;2.56500
-0.13176;0.09272;10.11746;-6.60625;24.01875;392.87500;-0.90000;1.60500;2.56500
-0.13420;0.09699;10.13149;-6.30000;23.40625;390.46875;-0.90000;1.60500;2.56500
-0.09394;0.08845;10.13088;-6.30000;23.31875;390.20624;-0.90000;1.60500;2.56500
-0.15616;0.09028;10.20225;-6.38750;23.62500;391.16876;-0.90000;1.60500;2.56500
-0.13908;0.09333;10.11441;-6.12500;24.01875;388.58749;-0.90000;1.60500;2.56500
-0.11468;0.09699;10.14796;-6.69375;23.27500;388.58749;-0.99000;1.51500;2.56500
-0.16714;0.06161;10.13820;-6.25625;23.31875;388.67499;-0.99000;1.51500;2.56500
-0.16470;0.08723;10.15772;-6.43125;23.62500;385.56876;-0.99000;1.51500;2.56500
-0.08967;0.07442;10.13576;-5.90625;23.49375;387.14374;-0.99000;1.51500;2.56500
-0.14091;0.10004;10.18273;-5.81875;22.92500;384.12500;-0.99000;1.51500;2.56500
-0.12993;0.11773;10.12600;-6.38750;24.23750;384.08124;-0.99000;1.51500;2.56500
-0.15982;0.04819;10.14613;-6.34375;23.53750;383.51251;-0.99000;1.51500;2.56500
-0.12322;0.10126;10.14247;-6.12500;23.71250;380.45001;-0.99000;1.51500;2.56500
-0.13603;0.08296;10.15101;-6.30000;23.88750;381.14999;-0.99000;1.51500;2.56500
-0.15860;0.07625;10.17175;-5.38125;23.23125;378.43750;-0.99000;1.51500;2.56500
-0.10431;0.09760;10.10770;-5.99375;23.31875;377.16876;-1.05000;1.45500;2.61000
-0.17446;0.06649;10.16687;-5.68750;23.53750;377.12500;-1.05000;1.45500;2.61000
-0.12383;0.10553;10.12417;-6.38750;24.10625;374.85001;-1.05000;1.45500;2.61000
-0.13908;0.07991;10.16077;-6.51875;23.71250;372.57501;-1.05000;1.45500;2.61000
-0.13542;0.09455;10.17602;-6.21250;23.36250;371.26251;-1.05000;1.45500;2.61000
-0.12993;0.09211;10.12844;-6.08125;23.36250;369.95001;-1.05000;1.45500;2.61000
-0.15860;0.07198;10.15711;-5.95000;23.10000;368.20001;-1.05000;1.45500;2.61000
-0.12871;0.07991;10.17419;-5.64375;24.19375;365.66251;-1.05000;1.45500;2.61000
-0.14030;0.04819;10.10160;-5.68750;24.01875;365.22501;-1.05000;1.45500;2.61000
-0.14823;0.08662;10.18822;-5.60000;23.18750;363.64999;-1.14000;1.47000;2.56500
-0.15616;0.08906;10.14247;-5.68750;23.58125;361.24374;-1.14000;1.47000;2.56500
-0.11895;0.10736;10.15772;-5.77500;23.31875;358.44376;-1.14000;1.47000;2.56500
-0.13176;0.08052;10.14491;-5.86250;23.53750;357.17499;-1.14000;1.47000;2.56500
-0.14518;0.07137;10.10526;-6.08125;23.62500;354.37500;-1.14000;1.47000;2.56500
-0.13115;0.04209;10.11502;-5.99375;23.31875;352.71249;-1.14000;1.47000;2.56500
-0.13237;0.07991;10.10648;-6.21250;23.27500;350.04376;-1.14000;1.47000;2.56500
-0.15250;0.08052;10.15894;-6.25625;23.18750;348.07501;-1.14000;1.47000;2.56500
-0.13237;0.08601;10.16138;-5.81875;23.18750;346.06250;-1.14000;1.47000;2.56500
-0.12932;0.08906;10.14735;-6.30000;23.01250;343.91876;-1.14000;1.47000;2.56500
-0.15921;0.04270;10.12783;-5.95000;23.58125;341.73126;-1.24500;1.38000;2.53500
-0.15372;0.06588;10.14003;-5.64375;23.18750;338.27499;-1.24500;1.38000;2.53500
-0.14335;0.08540;10.15284;-6.34375;23.53750;337.66251;-1.24500;1.38000;2.53500
-0.15433;0.07076;10.15711;-5.95000;23.53750;334.99374;-1.24500;1.38000;2.53500
-0.14701;0.07991;10.17480;-5.77500;23.14375;330.92499;-1.24500;1.38000;2.53500
-0.12810;0.06954;10.12478;-5.81875;22.92500;327.95001;-1.24500;1.38000;2.53500
-0.14396;0.05978;10.13698;-6.08125;23.36250;325.50000;-1.24500;1.38000;2.53500
-0.15433;0.07381;10.13393;-4.98750;23.58125;323.39999;-1.24500;1.38000;2.53500
-0.14518;0.05002;10.11563;-5.29375;22.48750;319.98749;-1.24500;1.38000;2.53500
-0.13725;0.10736;10.18761;-5.25000;23.53750;317.62500;-1.24500;1.38000;2.53500
-0.17324;0.04392;10.11014;-5.73125;23.49375;316.57501;-1.33500;1.32000;2.53500
-0.15738;0.05734;10.16809;-5.29375;23.45000;311.41251;-1.33500;1.32000;2.53500
-0.13969;0.06832;10.13149;-5.11875;22.61875;307.82501;-1.33500;1.32000;2.53500
-0.15921;0.07198;10.11136;-5.25000;22.92500;307.03751;-1.33500;1.32000;2.53500
-0.15433;0.08601;10.17114;-5.33750;22.75000;301.00000;-1.33500;1.32000;2.53500
-0.10919;0.07930;10.11319;-5.03125;23.05625;299.73126;-1.33500;1.32000;2.53500
-0.16897;0.06771;10.11685;-5.38125;23.45000;295.26874;-1.33500;1.32000;2.53500
-0.13542;0.06893;10.14796;-5.20625;22.96875;292.68750;-1.33500;1.32000;2.53500
-0.17263;0.05246;10.13698;-5.20625;22.53125;289.18750;-1.33500;1.32000;2.53500
-0.12261;0.06283;10.10892;-4.94375;23.05625;285.38126;-1.36500;1.27500;2.53500
-0.15189;0.08052;10.16687;-4.63750;23.18750;283.98126;-1.36500;1.27500;2.53500
-0.14762;0.05246;10.12173;-5.46875;22.61875;279.08124;-1.36500;1.27500;2.53500
-0.13176;0.06466;10.12722;-4.76875;23.01250;276.28125;-1.36500;1.27500;2.53500
-0.18422;0.05795;10.17297;-4.94375;23.40625;274.31250;-1.36500;1.27500;2.53500
-0.13725;0.07625;10.12539;-4.90000;22.53125;268.45001;-1.36500;1.27500;2.53500
-0.15311;0.07320;10.17846;-4.63750;22.92500;265.47501;-1.36500;1.27500;2.53500
-0.19032;0.05368;10.17114;-4.11250;22.83750;261.18750;-1.36500;1.27500;2.53500
-0.12322;0.08479;10.16199;-4.85625;23.27500;257.25000;-1.36500;1.27500;2.53500
-0.16409;0.06649;10.13332;-4.72500;23.01250;254.36250;-1.36500;1.27500;2.53500
-0.14457;0.04880;10.10587;-4.90000;22.92500;249.68124;-1.36500;1.17000;2.55000
-0.15067;0.06405;10.12295;-5.20625;22.75000;247.53751;-1.36500;1.17000;2.55000
-0.16043;0.03965;10.12844;-4.24375;22.22500;243.64375;-1.36500;1.17000;2.55000
-0.15555;0.05307;10.16443;-4.50625;22.96875;239.26875;-1.36500;1.17000;2.55000
-0.14823;0.06527;10.16443;-4.55000;23.31875;236.29375;-1.36500;1.17000;2.55000
-0.12383;0.07137;10.15833;-4.46250;23.49375;232.44376;-1.36500;1.17000;2.55000
-0.16470;0.04453;10.13576;-4.46250;22.66250;225.92500;-1.36500;1.17000;2.55000
-0.12139;0.07137;10.15711;-4.59375;22.53125;224.21875;-1.36500;1.17000;2.55000
-0.19947;0.05856;10.19127;-4.11250;23.23125;218.96875;-1.36500;1.17000;2.55000
-0.13176;0.07259;10.11746;-4.81250;23.01250;214.37500;-1.36500;1.17000;2.55000
-0.19215;0.01342;10.13942;-3.93750;23.27500;212.97501;-1.41000;1.09500;2.47500
-0.15433;0.06344;10.16626;-4.06875;23.05625;206.63126;-1.41000;1.09500;2.47500
-0.16836;0.05795;10.11502;-4.55000;22.83750;203.91875;-1.41000;1.09500;2.47500
-0.16958;0.03233;10.13576;-4.20000;23.10000;199.76250;-1.41000;1.09500;2.47500
-0.13420;0.10492;10.17358;-4.85625;23.14375;194.90625;-1.41000;1.09500;2.47500
-0.18483;0.02013;10.11075;-4.06875;22.83750;193.11250;-1.41000;1.09500;2.47500
-0.17141;0.07198;10.16260;-4.28750;22.70625;185.76250;-1.41000;1.09500;2.47500
-0.14457;0.03538;10.14735;-3.89375;22.88125;182.78751;-1.41000;1.09500;2.47500
-0.16653;0.05490;10.11441;-3.58750;22.22500;176.61874;-1.41000;1.09500;2.47500
-0.14823;0.07808;10.16748;-4.28750;22.88125;173.60001;-1.41000;1.09500;2.47500
-0.15006;0.04636;10.13210;-3.58750;22.22500;168.48125;-1.44000;1.03500;2.47500
-0.13847;0.04941;10.11746;-3.19375;22.40000;164.67500;-1.44000;1.03500;2.47500
-0.16287;0.05490;10.14186;-3.76250;22.40000;161.17500;-1.44000;1.03500;2.47500
-0.11651;0.06283;10.13637;-3.10625;22.61875;155.31250;-1.44000;1.03500;2.47500
-0.16470;0.05734;10.14430;-3.45625;22.75000;153.21249;-1.44000;1.03500;2.47500
-0.16165;0.04880;10.14430;-3.93750;22.57500;146.69376;-1.44000;1.03500;2.47500
-0.13359;0.05490;10.15650;-3.67500;22.75000;143.28125;-1.44000;1.03500;2.47500
-0.15250;0.06771;10.15955;-3.58750;22.13750;137.94376;-1.44000;1.03500;2.47500
-0.15250;0.04514;10.15894;-3.45625;22.22500;132.60625;-1.44000;1.03500;2.47500
-0.16775;0.05673;10.15528;-2.93125;22.48750;128.10001;-1.42500;1.02000;2.49000
-0.16165;0.05368;10.13454;-3.01875;22.09375;124.03125;-1.42500;1.02000;2.49000
-0.16897;0.03660;10.16138;-3.63125;22.53125;119.39375;-1.42500;1.02000;2.49000
-0.14457;0.05185;10.14857;-3.41250;22.79375;115.32500;-1.42500;1.02000;2.49000
-0.13786;0.06466;10.13820;-3.28125;22.22500;110.77500;-1.42500;1.02000;2.49000
-0.17629;0.03294;10.17236;-3.32500;21.78750;107.05625;-1.42500;1.02000;2.49000
-0.13542;0.05429;10.13393;-3.58750;21.91875;100.84375;-1.42500;1.02000;2.49000
-0.14884;0.05368;10.14857;-3.28125;21.83125;97.65000;-1.42500;1.02000;2.49000
-0.18422;0.03111;10.09977;-3.28125;22.70625;93.84375;-1.42500;1.02000;2.49000
-0.15189;0.04148;10.17541;-3.36875;22.57500;86.31875;-1.42500;1.02000;2.49000
-0.15494;0.04819;10.13454;-2.80000;22.18125;82.03125;-1.36500;0.96000;2.47500
-0.16165;0.04331;10.12844;-2.75625;22.13750;76.60625;-1.36500;0.96000;2.47500
-0.17751;0.04209;10.17968;-3.01875;22.35625;73.10625;-1.36500;0.96000;2.47500
-0.13847;0.05551;10.16016;-2.27500;22.35625;67.68125;-1.36500;0.96000;2.47500
-0.16470;0.04636;10.15345;-2.31875;22.13750;63.87500;-1.36500;0.96000;2.47500
-0.14762;0.04331;10.12661;-2.23125;22.22500;58.36250;-1.36500;0.96000;2.47500
-0.14518;0.06161;10.14735;-2.71250;22.26875;54.33750;-1.36500;0.96000;2.47500
-0.17995;0.01647;10.15162;-2.31875;22.66250;51.27500;-1.36500;0.96000;2.47500
-0.15128;0.04880;10.13332;-2.75625;21.91875;44.58125;-1.36500;0.96000;2.47500
-0.15006;0.05734;10.13637;-2.45000;22.40000;38.76250;-1.36500;0.96000;2.47500
-0.18849;0.03660;10.14918;-2.66875;22.18125;33.86250;-1.36500;0.91500;2.50500
-0.15799;0.06344;10.17846;-2.66875;22.31250;29.35625;-1.36500;0.91500;2.50500
-0.14091;0.05185;10.13942;-2.27500;22.26875;25.55000;-1.36500;0.91500;2.50500
-0.16226;-0.01281;10.08330;-2.14375;22.31250;20.47500;-1.36500;0.91500;2.50500
-0.13908;0.06771;10.17724;-2.10000;21.96250;15.53125;-1.36500;0.91500;2.50500
-0.18361;0.04270;10.13149;-2.18750;22.35625;12.51250;-1.36500;0.91500;2.50500
-0.13542;0.03965;10.12722;-1.96875;21.87500;5.99375;-1.36500;0.91500;2.50500
-0.14457;0.05490;10.16443;-2.27500;22.18125;2.84375;-1.36500;0.91500;2.50500
-0.16958;0.02562;10.14796;-1.96875;22.05000;-1.26875;-1.36500;0.91500;2.50500
-0.14945;0.05002;10.11075;-2.05625;22.05000;-7.08750;-1.45500;0.97500;2.53500
-0.14762;0.04636;10.11563;-1.61875;22.70625;-12.95000;-1.45500;0.97500;2.53500
-0.16714;0.04087;10.17297;-1.57500;22.13750;-18.94375;-1.45500;0.97500;2.53500
-0.16897;0.04392;10.14857;-1.61875;22.13750;-23.01250;-1.45500;0.97500;2.53500
-0.17751;0.04880;10.15894;-1.83750;21.78750;-28.04375;-1.45500;0.97500;2.53500
-0.13237;0.06161;10.17724;-1.70625;22.26875;-33.11875;-1.45500;0.97500;2.53500
-0.16165;0.02928;10.13149;-2.10000;22.09375;-36.35625;-1.45500;0.97500;2.53500
-0.16653;0.06161;10.13088;-2.10000;21.65625;-42.17500;-1.45500;0.97500;2.53500
-0.15250;0.04392;10.17480;-1.96875;21.56875;-46.24375;-1.45500;0.97500;2.53500
-0.15250;0.04514;10.15955;-1.40000;21.96250;-49.83125;-1.45500;0.97500;2.53500
-0.18666;0.01830;10.10587;-1.00625;21.26250;-55.30000;-1.48500;1.06500;2.52000
-0.14884;0.03904;10.12295;-1.79375;21.96250;-61.03125;-1.48500;1.06500;2.52000
-0.16348;0.04514;10.16687;-1.22500;22.00625;-66.01875;-1.48500;1.06500;2.52000
-0.18117;0.06283;10.12966;-1.44375;21.70000;-70.83125;-1.48500;1.06500;2.52000
-0.12810;0.08052;10.16321;-1.96875;21.61250;-74.94375;-1.48500;1.06500;2.52000
-0.17080;0.01952;10.13210;-1.40000;21.61250;-79.75625;-1.48500;1.06500;2.52000
-0.14579;0.07015;10.16748;-1.53125;21.56875;-84.00000;-1.48500;1.06500;2.52000
-0.18056;0.04087;10.16504;-0.91875;22.22500;-87.93750;-1.48500;1.06500;2.52000
-0.13603;0.06527;10.16565;-1.40000;21.78750;-93.66875;-1.48500;1.06500;2.52000
-0.15860;0.04697;10.13759;-0.91875;22.00625;-96.38125;-1.48500;1.06500;2.52000
-0.17202;0.02196;10.14796;-1.61875;22.00625;-101.06250;-1.50000;1.08000;2.50500
-0.14457;0.06588;10.16321;-1.40000;21.83125;-105.87500;-1.50000;1.08000;2.50500
-0.17995;0.04819;10.15955;-1.05000;21.65625;-112.74375;-1.50000;1.08000;2.50500
-0.15677;0.04941;10.14186;-0.87500;21.70000;-116.41875;-1.50000;1.08000;2.50500
-0.13420;0.05246;10.12539;-1.66250;21.61250;-121.49375;-1.50000;1.08000;2.50500
-0.16348;0.04819;10.11746;-1.31250;21.65625;-124.25000;-1.50000;1.08000;2.50500
-0.16592;0.05917;10.18273;-1.35625;21.96250;-130.06876;-1.50000;1.08000;2.50500
-0.14152;0.04880;10.15223;-0.52500;21.61250;-134.22501;-1.50000;1.08000;2.50500
-0.15860;0.04392;10.12661;-0.56875;21.61250;-137.85625;-1.50000;1.08000;2.50500
-0.14640;0.05795;10.13088;-0.91875;20.86875;-142.01250;-1.50000;1.08000;2.50500
-0.16470;0.02623;10.13210;-1.18125;22.05000;-145.51250;-1.44000;1.11000;2.47500
-0.13969;0.06710;10.14979;-0.39375;21.56875;-151.02499;-1.44000;1.11000;2.47500
-0.16470;0.05490;10.11929;-0.56875;21.35000;-156.62500;-1.44000;1.11000;2.47500
-0.13542;0.07259;10.15833;-0.74375;21.74375;-160.30000;-1.44000;1.11000;2.47500
-0.19337;0.04941;10.13637;-0.26250;21.70000;-164.85001;-1.44000;1.11000;2.47500
-0.14274;0.06710;10.15528;-0.43750;21.17500;-168.87500;-1.44000;1.11000;2.47500
-0.17080;0.04880;10.14857;-0.43750;21.70000;-172.72501;-1.44000;1.11000;2.47500
-0.14884;0.05124;10.12966;-1.13750;21.87500;-177.49374;-1.44000;1.11000;2.47500
-0.13603;0.06710;10.13759;-0.39375;21.48125;-180.29375;-1.44000;1.11000;2.47500
-0.20496;0.04575;10.11624;0.30625;21.65625;-184.53751;-1.44000;1.12500;2.52000
-0.12078;0.06344;10.11014;-0.39375;20.86875;-189.04375;-1.44000;1.12500;2.52000
-0.15860;0.06710;10.16260;0.04375;20.30000;-192.36874;-1.44000;1.12500;2.52000
-0.16104;0.04331;10.13454;-0.43750;21.70000;-198.58125;-1.44000;1.12500;2.52000
-0.14884;0.07503;10.14308;0.35000;21.74375;-201.86250;-1.44000;1.12500;2.52000
-0.13359;0.06100;10.14491;0.00000;21.70000;-206.71875;-1.44000;1.12500;2.52000
-0.12566;0.05612;10.09123;0.17500;21.30625;-209.30000;-1.44000;1.12500;2.52000
-0.15189;0.06161;10.14979;-0.61250;21.56875;-213.23750;-1.44000;1.12500;2.52000
-0.18422;0.05856;10.19859;0.17500;20.69375;-216.86874;-1.44000;1.12500;2.52000
-0.14274;0.06283;10.13576;0.26250;21.30625;-221.89999;-1.44000;1.12500;2.52000
-0.14274;0.07869;10.10526;0.00000;20.69375;-223.38750;-1.45500;1.11000;2.56500
-0.16409;0.03965;10.14430;0.17500;20.69375;-227.28125;-1.45500;1.11000;2.56500
-0.13847;0.06405;10.15223;-0.17500;21.21875;-232.22501;-1.45500;1.11000;2.56500
-0.15311;0.07198;10.12600;-0.30625;20.95625;-234.32500;-1.45500;1.11000;2.56500
-0.14152;0.05429;10.12966;0.78750;20.73750;-240.31876;-1.45500;1.11000;2.56500
-0.14823;0.07747;10.16077;0.35000;20.56250;-243.16251;-1.45500;1.11000;2.56500
-0.16104;0.04148;10.16504;0.65625;20.82500;-246.26875;-1.45500;1.11000;2.56500
-0.14457;0.08052;10.13149;0.04375;20.91250;-250.77499;-1.45500;1.11000;2.56500
-0.15677;0.05490;10.13149;0.56875;21.21875;-252.91875;-1.45500;1.11000;2.56500
-0.14091;0.07137;10.14674;0.56875;21.35000;-256.63751;-1.45500;1.11000;2.56500
-0.17690;0.05795;10.11014;0.48125;20.69375;-260.13751;-1.38000;1.12500;2.50500
-0.13847;0.07503;10.15650;0.21875;21.48125;-262.89374;-1.38000;1.12500;2.50500
-0.14823;0.07442;10.13210;0.26250;21.26250;-266.17499;-1.38000;1.12500;2.50500
-0.18788;0.05185;10.17419;0.48125;20.51875;-269.06250;-1.38000;1.12500;2.50500
-0.13786;0.06649;10.12234;0.52500;21.48125;-274.57501;-1.38000;1.12500;2.50500
-0.15128;0.06954;10.14918;0.43750;20.82500;-276.45624;-1.38000;1.12500;2.50500
-0.16653;0.06405;10.14857;0.52500;20.86875;-280.43750;-1.38000;1.12500;2.50500
-0.16226;0.06649;10.14247;1.05000;20.95625;-283.28125;-1.38000;1.12500;2.50500
-0.15372;0.05673;10.14491;-0.04375;20.65000;-286.25626;-1.38000;1.12500;2.50500
-0.15006;0.05368;10.11624;0.74375;20.30000;-288.57501;-1.33500;1.24500;2.47500
-0.14701;0.08662;10.14308;1.48750;20.60625;-291.06876;-1.33500;1.24500;2.47500
-0.15250;0.07503;10.13271;1.18125;20.73750;-294.13126;-1.33500;1.24500;2.47500
-0.14579;0.07564;10.14369;0.83125;20.91250;-297.14999;-1.33500;1.24500;2.47500
-0.12383;0.08235;10.13759;1.00625;20.69375;-299.68750;-1.33500;1.24500;2.47500
-0.15982;0.06283;10.14918;0.96250;21.21875;-302.57501;-1.33500;1.24500;2.47500
-0.12200;0.09333;10.13027;1.22500;21.08750;-305.41876;-1.33500;1.24500;2.47500
-0.16653;0.04636;10.15345;0.48125;20.69375;-308.52499;-1.33500;1.24500;2.47500
-0.13237;0.06222;10.11746;1.13750;21.04375;-311.76251;-1.33500;1.24500;2.47500
-0.14762;0.08967;10.14613;0.91875;21.08750;-313.03125;-1.33500;1.24500;2.47500
-0.13054;0.08357;10.15650;1.13750;20.91250;-316.00626;-1.26000;1.38000;2.47500
-0.15555;0.05795;10.13759;0.30625;20.56250;-317.66876;-1.26000;1.38000;2.47500
-0.13481;0.09699;10.17175;0.87500;20.21250;-319.98749;-1.26000;1.38000;2.47500
-0.15311;0.06405;10.17602;1.35625;21.39375;-321.56250;-1.26000;1.38000;2.47500
-0.15128;0.07015;10.13149;1.09375;21.08750;-325.32501;-1.26000;1.38000;2.47500
-0.13603;0.07991;10.13515;1.44375;20.86875;-327.33749;-1.26000;1.38000;2.47500
-0.16287;0.06710;10.18151;1.22500;21.21875;-330.09375;-1.26000;1.38000;2.47500
-0.14152;0.08174;10.14125;1.26875;20.82500;-332.10626;-1.26000;1.38000;2.47500
-0.14091;0.08418;10.14552;1.13750;20.65000;-332.63126;-1.26000;1.38000;2.47500
-0.10553;0.10187;10.16321;1.53125;20.78125;-338.71249;-1.26000;1.38000;2.47500
-0.13542;0.10248;10.15040;1.05000;20.73750;-336.70001;-1.20000;1.39500;2.50500
-0.14091;0.07259;10.14064;1.31250;20.78125;-339.93750;-1.20000;1.39500;2.50500
-0.11346;0.08479;10.13576;1.40000;20.60625;-342.16876;-1.20000;1.39500;2.50500
-0.14335;0.09394;10.17114;0.96250;20.38750;-341.73126;-1.20000;1.39500;2.50500
-0.17873;0.08418;10.16748;2.01250;20.56250;-344.66251;-1.20000;1.39500;2.50500
-0.10492;0.10065;10.14552;1.57500;20.60625;-347.15625;-1.20000;1.39500;2.50500
-0.15494;0.09211;10.18273;1.05000;20.38750;-346.98126;-1.20000;1.39500;2.50500
-0.14396;0.07625;10.12844;1.35625;20.78125;-350.39374;-1.20000;1.39500;2.50500
-0.13359;0.10614;10.13881;1.13750;20.78125;-352.01251;-1.20000;1.39500;2.50500
-0.15372;0.08723;10.15345;1.44375;20.91250;-351.26874;-1.20000;1.39500;2.50500
-0.13115;0.08052;10.14247;1.79375;20.38750;-355.38126;-1.14000;1.42500;2.50500
-0.10797;0.08601;10.13942;1.48750;20.12500;-354.11249;-1.14000;1.42500;2.50500
-0.17995;0.06222;10.15711;1.05000;20.86875;-354.98749;-1.14000;1.42500;2.50500
-0.11834;0.09882;10.14308;0.96250;21.04375;-358.61874;-1.14000;1.42500;2.50500
-0.12078;0.08296;10.13210;1.40000;20.56250;-358.48749;-1.14000;1.42500;2.50500
-0.14335;0.09394;10.11563;1.09375;20.82500;-360.23749;-1.14000;1.42500;2.50500
-0.13115;0.09699;10.15345;1.26875;20.56250;-361.28751;-1.14000;1.42500;2.50500
-0.14945;0.07686;10.13393;1.53125;20.56250;-362.46875;-1.14000;1.42500;2.50500
-0.14518;0.09882;10.14186;0.96250;20.91250;-363.69376;-1.14000;1.42500;2.50500
-0.12261;0.10187;10.16687;1.61875;20.25625;-363.56250;-1.06500;1.48500;2.53500
-0.12871;0.07686;10.13942;0.96250;20.69375;-365.39999;-1.06500;1.48500;2.53500
-0.11468;0.12322;10.16077;1.44375;20.38750;-365.66251;-1.06500;1.48500;2.53500
-0.11712;0.09028;10.14125;1.70625;20.78125;-365.48749;-1.06500;1.48500;2.53500
-0.14274;0.08052;10.14979;1.66250;20.47500;-367.10626;-1.06500;1.48500;2.53500
-0.10919;0.11712;10.14552;1.57500;20.30000;-367.80624;-1.06500;1.48500;2.53500
-0.14152;0.09638;10.18151;1.88125;20.12500;-367.23749;-1.06500;1.48500;2.53500
-0.11346;0.11773;10.17846;1.48750;21.35000;-368.28751;-1.06500;1.48500;2.53500
-0.12749;0.09699;10.10404;1.79375;21.00000;-367.50000;-1.06500;1.48500;2.53500
-0.16531;0.09150;10.18273;1.31250;20.38750;-370.16876;-1.06500;1.48500;2.53500
-0.10248;0.10980;10.16199;2.01250;20.25625;-368.68124;-1.05000;1.51500;2.56500
-0.18178;0.04941;10.13515;1.35625;20.38750;-368.98749;-1.05000;1.51500;2.56500
-0.10004;0.10675;10.10099;1.79375;20.86875;-369.95001;-1.05000;1.51500;2.56500
-0.13054;0.07198;10.15101;1.35625;20.78125;-368.11249;-1.05000;1.51500;2.56500
-0.09455;0.12993;10.18212;1.35625;20.47500;-370.82501;-1.05000;1.51500;2.56500
-0.15433;0.08052;10.14613;1.70625;20.47500;-368.50626;-1.05000;1.51500;2.56500
-0.14640;0.08662;10.17358;1.66250;21.08750;-370.43124;-1.05000;1.51500;2.56500
-0.09455;0.13664;10.17297;1.79375;20.51875;-369.95001;-1.05000;1.51500;2.56500
-0.14701;0.07381;10.14857;2.01250;20.86875;-368.63751;-1.05000;1.51500;2.56500
-0.09272;0.09577;10.12966;1.75000;20.25625;-368.46249;-1.05000;1.51500;2.56500
-0.13664;0.11712;10.20835;1.92500;20.51875;-368.28751;-0.96000;1.56000;2.56500
-0.11163;0.09943;10.15528;1.88125;20.30000;-369.29376;-0.96000;1.56000;2.56500
-0.13481;0.10309;10.15589;1.75000;20.56250;-367.32501;-0.96000;1.56000;2.56500
-0.11102;0.10553;10.15833;2.14375;20.38750;-367.14999;-0.96000;1.56000;2.56500
-0.12505;0.09882;10.16443;1.88125;20.86875;-365.92499;-0.96000;1.56000;2.56500
-0.11468;0.12810;10.18700;1.66250;20.51875;-365.92499;-0.96000;1.56000;2.56500
-0.11834;0.08479;10.15223;1.35625;20.86875;-364.87500;-0.96000;1.56000;2.56500
-0.12139;0.09821;10.15223;1.40000;21.04375;-364.52499;-0.96000;1.56000;2.56500
-0.09638;0.12200;10.14796;1.35625;20.91250;-363.64999;-0.96000;1.56000;2.56500
-0.14213;0.08418;10.11563;1.57500;20.34375;-361.94376;-0.79500;1.65000;2.56500
-0.09638;0.11224;10.16748;1.79375;20.25625;-361.54999;-0.79500;1.65000;2.56500
-0.11956;0.09882;10.14003;1.92500;20.86875;-359.93124;-0.79500;1.65000;2.56500
-0.09821;0.10797;10.15406;1.26875;20.60625;-359.97501;-0.79500;1.65000;2.56500
-0.10004;0.11041;10.16809;1.13750;20.56250;-358.48749;-0.79500;1.65000;2.56500
-0.12505;0.10919;10.16138;1.05000;21.21875;-357.04376;-0.79500;1.65000;2.56500
-0.11041;0.09638;10.15650;1.92500;20.60625;-355.77499;-0.79500;1.65000;2.56500
-0.08662;0.12017;10.13149;1.26875;20.21250;-355.81876;-0.79500;1.65000;2.56500
-0.13359;0.08540;10.14430;1.05000;20.47500;-353.58749;-0.79500;1.65000;2.56500
-0.10309;0.09455;10.16687;1.18125;21.08750;-352.58124;-0.79500;1.65000;2.56500
-0.09821;0.12322;10.16809;1.22500;20.82500;-350.70001;-0.73500;1.75500;2.59500
-0.13115;0.06893;10.11258;0.78750;20.47500;-348.29376;-0.73500;1.75500;2.59500
-0.10431;0.09516;10.13759;1.57500;20.65000;-348.07501;-0.73500;1.75500;2.59500
-0.10187;0.10858;10.13454;1.61875;20.38750;-344.31250;-0.73500;1.75500;2.59500
-0.13664;0.10614;10.13454;2.05625;20.82500;-343.61249;-0.73500;1.75500;2.59500
-0.08357;0.10553;10.14247;0.78750;20.25625;-342.91251;-0.73500;1.75500;2.59500
-0.11407;0.10187;10.15894;0.65625;21.04375;-339.54376;-0.73500;1.75500;2.59500
-0.11407;0.09394;10.13942;1.18125;20.60625;-338.66876;-0.73500;1.75500;2.59500
-0.09150;0.13298;10.18456;1.44375;20.65000;-337.09375;-0.73500;1.75500;2.59500
-0.11407;0.09760;10.14491;1.26875;20.21250;-334.33749;-0.73500;1.75500;2.59500
-0.10919;0.11590;10.13515;1.18125;20.56250;-334.25000;-0.69000;1.80000;2.59500
-0.09089;0.10919;10.15345;1.61875;20.51875;-330.88126;-0.69000;1.80000;2.59500
-0.11468;0.10187;10.15467;1.05000;20.65000;-328.38751;-0.69000;1.80000;2.59500
-0.09089;0.11407;10.16565;1.35625;20.65000;-326.37500;-0.69000;1.80000;2.59500
-0.13115;0.10370;10.16565;0.91875;21.21875;-322.30624;-0.69000;1.80000;2.59500
-0.08174;0.12871;10.16809;0.78750;20.47500;-322.70001;-0.69000;1.80000;2.59500
-0.09150;0.10370;10.13149;1.88125;20.65000;-318.67499;-0.69000;1.80000;2.59500
-0.10431;0.09455;10.14857;0.96250;20.73750;-316.09375;-0.69000;1.80000;2.59500
-0.06466;0.14701;10.14125;1.13750;20.47500;-316.26874;-0.69000;1.80000;2.59500
-0.10187;0.08967;10.14857;0.96250;21.39375;-310.58124;-0.69000;1.80000;2.59500
-0.11529;0.09455;10.11563;1.35625;20.73750;-310.53751;-0.61500;1.77000;2.61000
-0.06222;0.11590;10.12783;1.00625;20.73750;-306.90625;-0.61500;1.77000;2.61000
-0.11102;0.11651;10.20164;1.13750;20.56250;-303.84375;-0.61500;1.77000;2.61000
-0.07686;0.12749;10.16748;0.96250;20.78125;-301.39374;-0.61500;1.77000;2.61000
-0.08479;0.09394;10.16992;0.87500;20.47500;-297.67499;-0.61500;1.77000;2.61000
-0.07991;0.12810;10.17785;0.61250;20.91250;-296.10001;-0.61500;1.77000;2.61000
-0.10004;0.08784;10.11868;0.52500;20.56250;-292.16251;-0.61500;1.77000;2.61000
-0.09821;0.11041;10.14918;1.05000;21.21875;-290.45624;-0.61500;1.77000;2.61000
-0.09211;0.09760;10.11746;0.83125;21.43750;-287.08749;-0.61500;1.77000;2.61000
-0.08235;0.09699;10.12417;1.26875;20.43125;-284.33124;-0.48000;1.77000;2.61000
-0.09272;0.12810;10.17297;0.56875;20.78125;-281.79376;-0.48000;1.77000;2.61000
-0.08113;0.10858;10.14491;0.78750;20.03750;-278.38126;-0.48000;1.77000;2.61000
-0.09882;0.09455;10.16321;0.17500;21.74375;-275.53751;-0.48000;1.77000;2.61000
-0.10553;0.08357;10.15467;0.61250;20.91250;-271.73126;-0.48000;1.77000;2.61000
-0.06466;0.13481;10.15650;0.65625;21.08750;-267.44376;-0.48000;1.77000;2.61000
-0.11346;0.09272;10.13088;0.74375;20.91250;-265.56250;-0.48000;1.77000;2.61000
-0.07686;0.12017;10.20408;0.61250;21.52500;-262.50000;-0.48000;1.77000;2.61000
-0.09638;0.08540;10.12966;0.26250;21.17500;-258.47501;-0.48000;1.77000;2.61000
-0.08723;0.10248;10.15162;0.17500;21.17500;-255.01875;-0.48000;1.77000;2.61000
-0.08967;0.10370;10.15833;0.91875;20.86875;-251.60625;-0.37500;1.80000;2.64000
-0.06771;0.09333;10.15162;0.35000;21.17500;-249.28751;-0.37500;1.80000;2.64000
-0.12017;0.08845;10.17053;0.78750;21.13125;-245.48125;-0.37500;1.80000;2.64000
-0.06893;0.11529;10.15406;0.21875;20.65000;-243.42500;-0.37500;1.80000;2.64000
-0.06100;0.12261;10.19859;0.43750;20.82500;-236.29375;-0.37500;1.80000;2.64000
-0.10858;0.07564;10.14796;0.04375;21.26250;-233.23125;-0.37500;1.80000;2.64000
-0.06527;0.10858;10.12417;0.04375;21.26250;-229.81876;-0.37500;1.80000;2.64000
-0.07015;0.10797;10.14003;0.00000;21.43750;-226.80000;-0.37500;1.80000;2.64000
-0.09333;0.11163;10.16504;-0.17500;21.78750;-222.20625;-0.37500;1.80000;2.64000
-0.07808;0.11407;10.16382;0.21875;20.82500;-219.45000;-0.37500;1.80000;2.64000
-0.07625;0.10431;10.10221;0.48125;20.95625;-215.07500;-0.34500;1.86000;2.64000
-0.08296;0.11224;10.15467;0.00000;21.00000;-211.96875;-0.34500;1.86000;2.64000
-0.06954;0.09943;10.12966;0.35000;21.56875;-207.76875;-0.34500;1.86000;2.64000
-0.09272;0.10370;10.17724;-0.74375;21.39375;-204.00626;-0.34500;1.86000;2.64000
-0.08784;0.10980;10.16199;0.13125;21.65625;-200.55000;-0.34500;1.86000;2.64000
-0.05185;0.11651;10.15833;0.17500;21.83125;-194.25000;-0.34500;1.86000;2.64000
-0.06649;0.12810;10.16138;-0.30625;21.56875;-189.43750;-0.34500;1.86000;2.64000
-0.07991;0.07686;10.14979;0.08750;21.39375;-187.46875;-0.34500;1.86000;2.64000
-0.07808;0.11834;10.16016;-0.43750;20.95625;-182.96249;-0.34500;1.86000;2.64000
-0.06771;0.10126;10.14308;-0.74375;21.26250;-178.58749;-0.28500;1.89000;2.62500
-0.10126;0.10492;10.13088;-0.91875;20.95625;-174.95625;-0.28500;1.89000;2.62500
-0.06527;0.08479;10.13454;-0.70000;21.17500;-170.84375;-0.28500;1.89000;2.62500
-0.09943;0.07747;10.14735;-0.56875;21.04375;-167.34375;-0.28500;1.89000;2.62500
-0.05856;0.09943;10.16931;-0.91875;21.39375;-163.36250;-0.28500;1.89000;2.62500
-0.08418;0.10126;10.18090;-0.17500;21.35000;-158.89999;-0.28500;1.89000;2.62500
-0.07869;0.10065;10.13942;-0.91875;22.22500;-153.25626;-0.28500;1.89000;2.62500
-0.04636;0.11651;10.15894;-0.91875;21.78750;-148.35625;-0.28500;1.89000;2.62500
-0.07686;0.09577;10.16016;-0.78750;21.48125;-143.98125;-0.28500;1.89000;2.62500
-0.06222;0.10919;10.16504;-0.78750;21.35000;-141.39999;-0.28500;1.89000;2.62500
-0.04331;0.08296;10.09062;-0.43750;21.39375;-135.10001;-0.25500;1.87500;2.64000
-0.07808;0.08662;10.14186;-0.70000;20.95625;-131.38126;-0.25500;1.87500;2.64000
-0.05246;0.12932;10.18578;-0.48125;21.21875;-128.14375;-0.25500;1.87500;2.64000
-0.07259;0.10797;10.11380;-0.96250;21.65625;-123.20000;-0.25500;1.87500;2.64000
-0.07503;0.09943;10.10709;-1.40000;21.91875;-118.82500;-0.25500;1.87500;2.64000
-0.07381;0.08418;10.17053;-1.13750;22.31250;-114.53750;-0.25500;1.87500;2.64000
-0.09272;0.10858;10.18334;-1.13750;21.35000;-110.38125;-0.25500;1.87500;2.64000
-0.04575;0.12566;10.10282;-1.00625;21.52500;-103.90625;-0.25500;1.87500;2.64000
-0.05856;0.09760;10.14064;-1.61875;22.13750;-98.26250;-0.25500;1.87500;2.64000
-0.05673;0.08906;10.10038;-1.61875;21.87500;-96.29375;-0.25500;1.87500;2.64000
-0.07503;0.09516;10.13637;-1.35625;21.56875;-90.60625;-0.21000;1.86000;2.64000
-0.09089;0.07015;10.12478;-1.61875;21.87500;-85.75000;-0.21000;1.86000;2.64000
-0.03416;0.12505;10.13820;-0.87500;21.39375;-83.30000;-0.21000;1.86000;2.64000
-0.09577;0.08662;10.16382;-1.35625;21.74375;-76.25625;-0.21000;1.86000;2.64000
-0.08174;0.10004;10.15162;-1.26875;21.70000;-73.54375;-0.21000;1.86000;2.64000
-0.05673;0.10004;10.10282;-2.05625;22.00625;-68.77500;-0.21000;1.86000;2.64000
-0.09028;0.09516;10.16687;-1.79375;22.05000;-62.78125;-0.21000;1.86000;2.64000
-0.06710;0.10675;10.14552;-1.83750;22.18125;-58.45000;-0.21000;1.86000;2.64000
-0.06039;0.10736;10.16565;-1.18125;21.74375;-52.01875;-0.21000;1.86000;2.64000
-0.07869;0.09516;10.12905;-1.83750;21.52500;-47.86250;-0.21000;1.86000;2.64000
-0.06588;0.11834;10.12539;-1.13750;21.70000;-43.61875;-0.16500;1.87500;2.61000
-0.06405;0.09882;10.14308;-1.66250;22.22500;-39.11250;-0.16500;1.87500;2.61000
-0.05917;0.10309;10.14430;-1.75000;21.35000;-34.56250;-0.16500;1.87500;2.61000
-0.04636;0.07198;10.11319;-1.57500;21.87500;-29.88125;-0.16500;1.87500;2.61000
-0.09089;0.08967;10.18761;-2.27500;22.00625;-25.06875;-0.16500;1.87500;2.61000
-0.07259;0.11468;10.16016;-1.70625;21.74375;-21.65625;-0.16500;1.87500;2.61000
-0.04331;0.13115;10.11441;-1.79375;21.70000;-16.80000;-0.16500;1.87500;2.61000
-0.08357;0.07503;10.16931;-1.92500;21.87500;-10.80625;-0.16500;1.87500;2.61000
-0.04941;0.10431;10.13393;-1.75000;22.22500;-5.90625;-0.16500;1.87500;2.61000
-0.04636;0.11163;10.15101;-2.31875;21.61250;0.56875;-0.16500;1.87500;2.59500
-0.04209;0.11590;10.14613;-2.66875;22.00625;3.71875;-0.16500;1.87500;2.59500
-0.05429;0.09943;10.12661;-2.18750;21.70000;9.23125;-0.16500;1.87500;2.59500
-0.07137;0.07320;10.12844;-2.10000;22.18125;13.16875;-0.16500;1.87500;2.59500
-0.06771;0.10187;10.15711;-2.49375;21.70000;16.62500;-0.16500;1.87500;2.59500
-0.05917;0.09638;10.12783;-1.57500;21.52500;23.36250;-0.16500;1.87500;2.59500
-0.07686;0.10126;10.18212;-2.14375;22.05000;26.64375;-0.16500;1.87500;2.59500
-0.04514;0.10553;10.14003;-2.88750;22.26875;30.18750;-0.16500;1.87500;2.59500
-0.04819;0.12322;10.14735;-2.84375;22.31250;36.70625;-0.16500;1.87500;2.59500
-0.05673;0.09272;10.11807;-2.40625;22.18125;42.30625;-0.16500;1.87500;2.59500
-0.04941;0.09516;10.12417;-2.66875;22.53125;47.11875;-0.19500;1.90500;2.59500
-0.04514;0.09089;10.11563;-2.75625;21.65625;53.41875;-0.19500;1.90500;2.59500
-0.09516;0.09577;10.15406;-2.66875;22.70625;56.08750;-0.19500;1.90500;2.59500
-0.04392;0.12139;10.13149;-3.19375;21.87500;61.86250;-0.19500;1.90500;2.59500
-0.10370;0.07747;10.13210;-3.01875;21.91875;66.58750;-0.19500;1.90500;2.59500
-0.05002;0.10675;10.15406;-2.93125;21.96250;69.78125;-0.19500;1.90500;2.59500
-0.06039;0.10614;10.12722;-3.15000;22.48750;75.81875;-0.19500;1.90500;2.59500
-0.09272;0.06832;10.14857;-3.32500;22.22500;79.49375;-0.19500;1.90500;2.59500
-0.04636;0.12627;10.16016;-3.10625;22.48750;83.16875;-0.19500;1.90500;2.59500
-0.08967;0.08479;10.13515;-3.32500;22.00625;89.42500;-0.19500;1.90500;2.59500
-0.06100;0.09760;10.14308;-3.15000;22.53125;95.11250;-0.19500;1.93500;2.62500
-0.06893;0.08845;10.13149;-3.28125;22.79375;99.61875;-0.19500;1.93500;2.62500
-0.07625;0.09577;10.15406;-3.01875;22.05000;103.03125;-0.19500;1.93500;2.62500
-0.06710;0.10126;10.15101;-3.50000;22.66250;109.15625;-0.19500;1.93500;2.62500
-0.08845;0.09455;10.16199;-3.54375;22.48750;113.09375;-0.19500;1.93500;2.62500
-0.04941;0.12688;10.18273;-2.93125;22.79375;115.85000;-0.19500;1.93500;2.62500
-0.06161;0.10431;10.13637;-3.32500;22.79375;122.67500;-0.19500;1.93500;2.62500
-0.07991;0.06344;10.12295;-3.63125;22.83750;126.08750;-0.19500;1.93500;2.62500
-0.04575;0.10858;10.14552;-3.41250;22.22500;129.50000;-0.19500;1.93500;2.62500
-0.08845;0.08113;10.09489;-3.41250;22.05000;135.36250;-0.19500;1.93500;2.65500
-0.08235;0.10431;10.19676;-3.76250;22.18125;140.13126;-0.19500;1.93500;2.65500
-0.07259;0.10431;10.13820;-3.67500;23.18750;145.64375;-0.19500;1.93500;2.65500
-0.06100;0.09150;10.14796;-3.19375;22.53125;149.62500;-0.19500;1.93500;2.65500
-0.08540;0.08174;10.14552;-3.89375;23.10000;153.73750;-0.19500;1.93500;2.65500
-0.07747;0.10980;10.14979;-3.80625;22.57500;158.55000;-0.19500;1.93500;2.65500
-0.07198;0.11407;10.16260;-4.02500;22.44375;162.00626;-0.19500;1.93500;2.65500
-0.05795;0.09516;10.12966;-3.63125;22.57500;166.33749;-0.19500;1.93500;2.65500
-0.11224;0.09333;10.14979;-4.33125;22.75000;171.10625;-0.19500;1.93500;2.65500
-0.06466;0.07686;10.10099;-4.02500;22.75000;174.21249;-0.19500;1.93500;2.65500
-0.06588;0.10553;10.15772;-4.06875;22.35625;179.68124;-0.22500;1.90500;2.64000
-0.08845;0.09516;10.14552;-4.41875;23.23125;182.87500;-0.22500;1.90500;2.64000
-0.08235;0.09211;10.11441;-4.24375;22.88125;189.35001;-0.22500;1.90500;2.64000
-0.05734;0.08906;10.16199;-4.46250;23.27500;193.68124;-0.22500;1.90500;2.64000
-0.07503;0.08784;10.12356;-3.89375;22.53125;196.65625;-0.22500;1.90500;2.64000
-0.07869;0.11346;10.13820;-3.63125;22.61875;201.64375;-0.22500;1.90500;2.64000
-0.07747;0.09455;10.16382;-4.50625;22.79375;206.01875;-0.22500;1.90500;2.64000
-0.06954;0.08784;10.14125;-3.93750;22.88125;208.90625;-0.22500;1.90500;2.64000
-0.05673;0.12749;10.13088;-4.33125;22.35625;212.40625;-0.22500;1.90500;2.64000
-0.11224;0.08296;10.14979;-4.06875;22.40000;217.96249;-0.22500;1.90500;2.64000
-0.06100;0.10065;10.14186;-4.33125;23.01250;220.06250;-0.27000;1.86000;2.59500
-0.07625;0.09943;10.15101;-4.85625;22.83750;224.39375;-0.27000;1.86000;2.59500
-0.07747;0.10431;10.14247;-4.37500;23.40625;230.86874;-0.27000;1.86000;2.59500
-0.10187;0.11285;10.17297;-4.90000;22.83750;233.80000;-0.27000;1.86000;2.59500
-0.07015;0.08967;10.14186;-4.72500;22.40000;238.78751;-0.27000;1.86000;2.59500
-0.10919;0.10309;10.20103;-4.63750;23.01250;241.50000;-0.27000;1.86000;2.59500
-0.04941;0.12383;10.16077;-4.50625;22.79375;244.78125;-0.27000;1.86000;2.59500
-0.11712;0.07747;10.13149;-4.72500;23.01250;249.76875;-0.27000;1.86000;2.59500
-0.06771;0.11956;10.12600;-5.11875;23.53750;252.17500;-0.27000;1.86000;2.59500
-0.06954;0.12078;10.14735;-4.50625;23.14375;255.89375;-0.27000;1.86000;2.59500
-0.07503;0.08845;10.12539;-5.29375;23.23125;259.70001;-0.34500;1.86000;2.67000
-0.09028;0.12078;10.17602;-4.98750;22.79375;263.11249;-0.34500;1.86000;2.67000
-0.07320;0.12383;10.17297;-4.63750;23.18750;266.39374;-0.34500;1.86000;2.67000
-0.09211;0.09028;10.09733;-5.03125;23.71250;271.33749;-0.34500;1.86000;2.67000
-0.06161;0.09943;10.15955;-4.72500;23.53750;274.83749;-0.34500;1.86000;2.67000
-0.08601;0.12322;10.19676;-4.37500;23.14375;278.33749;-0.34500;1.86000;2.67000
-0.07869;0.08906;10.15101;-5.33750;23.45000;281.04999;-0.34500;1.86000;2.67000
-0.07808;0.11773;10.17724;-5.46875;23.45000;284.06876;-0.34500;1.86000;2.67000
-0.07503;0.10614;10.14369;-4.55000;22.83750;288.00626;-0.34500;1.86000;2.67000
-0.08540;0.12017;10.13332;-4.94375;23.10000;290.98126;-0.42000;1.89000;2.68500
-0.08113;0.09699;10.11075;-5.11875;22.92500;293.69376;-0.42000;1.89000;2.68500
-0.06771;0.10980;10.13637;-5.99375;23.36250;297.41251;-0.42000;1.89000;2.68500
-0.11651;0.10065;10.14308;-4.68125;23.05625;299.73126;-0.42000;1.89000;2.68500
-0.08540;0.12261;10.12173;-5.55625;23.14375;305.15625;-0.42000;1.89000;2.68500
-0.10431;0.06893;10.14552;-5.86250;23.58125;307.64999;-0.42000;1.89000;2.68500
-0.10248;0.12261;10.13027;-4.90000;23.14375;309.53125;-0.42000;1.89000;2.68500
-0.10736;0.11773;10.15101;-5.07500;23.36250;313.95001;-0.42000;1.89000;2.68500
-0.09882;0.10187;10.15406;-6.03750;23.40625;315.00000;-0.42000;1.89000;2.68500
-0.09455;0.09943;10.15406;-5.55625;23.23125;318.54376;-0.42000;1.89000;2.68500
-0.11895;0.10004;10.14430;-5.55625;23.05625;322.17499;-0.46500;1.87500;2.59500
-0.10431;0.11224;10.15040;-4.94375;22.92500;323.44376;-0.46500;1.87500;2.59500
-0.10797;0.09333;10.13881;-5.29375;23.10000;327.03125;-0.46500;1.87500;2.59500
-0.10004;0.08418;10.12478;-5.33750;23.05625;329.87500;-0.46500;1.87500;2.59500
-0.09150;0.14762;10.16931;-5.33750;23.75625;332.01874;-0.46500;1.87500;2.59500
-0.10004;0.10797;10.12722;-6.21250;23.05625;334.99374;-0.46500;1.87500;2.59500
-0.08296;0.11895;10.12966;-5.68750;23.18750;337.92499;-0.46500;1.87500;2.59500
-0.12566;0.05551;10.10892;-5.42500;23.27500;341.29376;-0.46500;1.87500;2.59500
-0.08479;0.12566;10.14430;-5.86250;22.92500;341.25000;-0.46500;1.87500;2.59500
-0.11773;0.09394;10.14003;-5.55625;24.10625;345.23126;-0.46500;1.87500;2.59500
-0.10980;0.09150;10.15345;-5.51250;23.18750;346.54376;-0.49500;1.81500;2.56500
-0.09150;0.13847;10.15528;-5.81875;23.75625;348.95001;-0.49500;1.81500;2.56500
-0.11956;0.10126;10.14918;-6.08125;23.88750;352.31876;-0.49500;1.81500;2.56500
-0.10736;0.08601;10.13332;-5.33750;22.88125;352.66876;-0.49500;1.81500;2.56500
-0.08357;0.09882;10.15955;-5.16250;22.75000;354.81250;-0.49500;1.81500;2.56500
-0.11773;0.07564;10.12905;-6.08125;23.10000;357.78751;-0.49500;1.81500;2.56500
-0.09272;0.10553;10.14003;-5.33750;23.53750;359.49374;-0.49500;1.81500;2.56500
-0.10675;0.09455;10.13759;-5.51250;23.40625;361.68124;-0.49500;1.81500;2.56500
-0.10858;0.10553;10.11319;-5.51250;23.31875;364.04376;-0.49500;1.81500;2.56500
-0.10919;0.09821;10.15772;-5.64375;23.23125;366.01251;-0.58500;1.74000;2.56500
-0.09577;0.08357;10.12905;-5.55625;23.31875;366.97501;-0.58500;1.74000;2.56500
-0.11041;0.11468;10.15284;-5.73125;23.18750;368.85626;-0.58500;1.74000;2.56500
-0.12810;0.10370;10.14186;-6.08125;23.84375;371.30624;-0.58500;1.74000;2.56500
-0.08845;0.10736;10.15589;-5.90625;23.01250;371.70001;-0.58500;1.74000;2.56500
-0.09028;0.10492;10.15711;-6.12500;24.36875;373.84375;-0.58500;1.74000;2.56500
-0.11773;0.10797;10.10160;-5.64375;23.23125;375.33124;-0.58500;1.74000;2.56500
-0.12871;0.10187;10.14369;-5.95000;23.80000;376.64374;-0.58500;1.74000;2.56500
-0.10553;0.09028;10.15162;-6.08125;23.62500;378.52499;-0.58500;1.74000;2.56500
-0.12078;0.09455;10.11685;-6.25625;23.05625;379.18124;-0.58500;1.74000;2.56500
-0.10736;0.13176;10.16138;-6.60625;23.49375;380.40625;-0.70500;1.71000;2.59500
-0.12444;0.09272;10.12295;-6.16875;24.10625;382.68124;-0.70500;1.71000;2.59500
-0.11163;0.10370;10.14613;-6.38750;23.45000;382.11249;-0.70500;1.71000;2.59500
-0.11407;0.11956;10.15650;-5.95000;23.58125;383.38126;-0.70500;1.71000;2.59500
-0.12078;0.08784;10.13942;-5.99375;23.49375;384.43124;-0.70500;1.71000;2.59500
-0.09699;0.10370;10.12600;-5.77500;23.45000;385.65625;-0.70500;1.71000;2.59500
-0.09699;0.10858;10.17358;-6.08125;24.36875;386.92499;-0.70500;1.71000;2.59500
-0.13481;0.09028;10.12051;-6.12500;23.49375;387.66876;-0.70500;1.71000;2.59500
-0.11895;0.08784;10.10526;-6.21250;23.75625;388.50000;-0.70500;1.71000;2.59500
-0.11956;0.11163;10.16138;-5.99375;23.53750;389.33124;-0.70500;1.71000;2.59500
-0.14030;0.08845;10.11380;-5.81875;23.49375;390.86249;-0.76500;1.72500;2.53500
-0.13054;0.08784;10.14003;-6.43125;23.36250;390.68750;-0.76500;1.72500;2.53500
-0.13176;0.09638;10.17236;-5.99375;23.36250;391.86874;-0.76500;1.72500;2.53500
-0.10553;0.10553;10.12356;-6.65000;23.53750;391.56250;-0.76500;1.72500;2.53500
-0.13786;0.10553;10.14064;-7.17500;24.28125;393.35626;-0.76500;1.72500;2.53500
-0.12932;0.07808;10.10831;-6.25625;23.66875;393.09375;-0.76500;1.72500;2.53500
-0.13420;0.07625;10.13393;-5.95000;23.62500;392.96249;-0.76500;1.72500;2.53500
-0.11773;0.10126;10.14857;-6.08125;22.48750;393.26874;-0.76500;1.72500;2.53500
-0.15250;0.07320;10.12051;-6.30000;23.36250;392.26251;-0.76500;1.72500;2.53500
-0.10797;0.10065;10.14003;-5.73125;23.80000;392.74374;-0.76500;1.72500;2.53500
-0.13908;0.10858;10.16931;-6.56250;23.80000;394.97501;-0.87000;1.68000;2.56500
-0.14945;0.08906;10.11746;-6.38750;23.66875;394.40625;-0.87000;1.68000;2.56500
-0.11590;0.11590;10.14369;-5.81875;23.14375;393.44376;-0.87000;1.68000;2.56500
-0.12871;0.07930;10.11746;-6.08125;23.80000;393.53125;-0.87000;1.68000;2.56500
-0.14335;0.08113;10.14430;-5.81875;23.14375;393.22501;-0.87000;1.68000;2.56500
-0.13603;0.09882;10.16504;-6.16875;23.36250;392.87500;-0.87000;1.68000;2.56500
-0.13908;0.10004;10.13149;-5.95000;23.45000;392.83124;-0.87000;1.68000;2.56500
-0.12566;0.08540;10.15955;-6.34375;23.88750;392.56876;-0.87000;1.68000;2.56500
-0.11224;0.09516;10.12356;-6.38750;24.15000;391.82501;-0.87000;1.68000;2.56500
-0.15433;0.11529;10.17297;-6.25625;23.31875;392.48126;-0.97500;1.59000;2.61000
-0.14518;0.08418;10.15406;-5.77500;23.27500;390.33749;-0.97500;1.59000;2.61000
-0.12383;0.10919;10.13820;-6.08125;23.49375;391.08124;-0.97500;1.59000;2.61000
-0.15311;0.06771;10.11258;-6.34375;23.45000;389.59375;-0.97500;1.59000;2.61000
-0.11407;0.10980;10.17297;-6.21250;24.28125;389.41876;-0.97500;1.59000;2.61000
-0.14396;0.07564;10.11807;-6.43125;23.66875;388.93750;-0.97500;1.59000;2.61000
-0.10736;0.11712;10.14369;-5.29375;23.18750;387.62500;-0.97500;1.59000;2.61000
-0.16531;0.09455;10.17358;-5.64375;23.62500;387.05624;-0.97500;1.59000;2.61000
-0.11468;0.09943;10.15711;-5.51250;23.27500;384.69376;-0.97500;1.59000;2.61000
-0.14274;0.08540;10.16504;-6.03750;23.27500;385.48126;-0.97500;1.59000;2.61000
-0.15433;0.07991;10.16199;-6.16875;23.36250;382.63751;-1.00500;1.50000;2.55000
-0.12810;0.09943;10.15284;-5.99375;23.14375;382.24374;-1.00500;1.50000;2.55000
-0.15921;0.07198;10.17968;-6.21250;23.97500;381.14999;-1.00500;1.50000;2.55000
-0.09882;0.10797;10.12051;-5.55625;22.92500;379.39999;-1.00500;1.50000;2.55000
-0.16775;0.05917;10.10770;-5.81875;23.18750;379.61874;-1.00500;1.50000;2.55000
-0.14701;0.10126;10.14979;-5.81875;23.62500;376.33749;-1.00500;1.50000;2.55000
-0.11529;0.10614;10.11624;-6.12500;23.27500;376.16251;-1.00500;1.50000;2.55000
-0.17019;0.08052;10.15223;-6.51875;23.53750;376.51251;-1.00500;1.50000;2.55000
-0.16226;0.05795;10.12844;-6.16875;23.49375;372.88126;-1.00500;1.50000;2.55000
-0.11895;0.09455;10.15772;-5.42500;23.45000;371.30624;-1.00500;1.50000;2.55000
-0.14030;0.09943;10.14064;-5.25000;23.80000;370.73749;-1.06500;1.41000;2.55000
-0.17263;0.04087;10.09123;-5.68750;23.84375;366.84375;-1.06500;1.41000;2.55000
-0.08845;0.10126;10.13027;-6.12500;23.49375;367.23749;-1.06500;1.41000;2.55000
-0.15921;0.05429;10.13515;-5.33750;23.31875;364.87500;-1.06500;1.41000;2.55000
-0.12261;0.10553;10.20225;-5.46875;23.80000;361.11249;-1.06500;1.41000;2.55000
-0.15799;0.06527;10.14491;-5.46875;23.49375;362.46875;-1.06500;1.41000;2.55000
-0.16043;0.06832;10.15040;-5.95000;22.66250;358.44376;-1.06500;1.41000;2.55000
-0.13176;0.08296;10.11624;-5.77500;23.10000;356.73749;-1.06500;1.41000;2.55000
-0.18849;0.07442;10.16382;-6.03750;23.10000;355.42499;-1.06500;1.41000;2.55000
-0.11529;0.10004;10.14125;-5.55625;23.01250;352.97501;-1.15500;1.39500;2.55000
-0.17568;0.04331;10.17663;-5.51250;23.45000;349.08124;-1.15500;1.39500;2.55000
-0.13786;0.07625;10.11746;-5.60000;23.80000;346.85001;-1.15500;1.39500;2.55000
-0.12444;0.09089;10.14247;-5.95000;23.45000;346.71875;-1.15500;1.39500;2.55000
-0.16287;0.08296;10.16016;-5.46875;23.31875;342.64999;-1.15500;1.39500;2.55000
-0.12444;0.10614;10.18517;-5.46875;23.49375;340.85626;-1.15500;1.39500;2.55000
-0.14396;0.07869;10.10648;-5.64375;23.80000;339.23749;-1.15500;1.39500;2.55000
-0.15494;0.06283;10.11807;-5.81875;23.23125;335.34375;-1.15500;1.39500;2.55000
-0.15677;0.04636;10.09733;-6.12500;23.58125;335.47501;-1.15500;1.39500;2.55000
-0.15311;0.07198;10.15040;-5.77500;23.23125;331.79999;-1.15500;1.39500;2.55000
-0.14030;0.10797;10.20652;-5.51250;23.10000;328.43124;-1.26000;1.35000;2.53500
-0.16470;0.06893;10.11929;-5.46875;23.31875;326.46249;-1.26000;1.35000;2.53500
-0.16775;0.08357;10.14308;-6.12500;23.31875;322.13126;-1.26000;1.35000;2.53500
-0.13908;0.07686;10.14735;-5.64375;23.40625;319.89999;-1.26000;1.35000;2.53500
-0.15311;0.06710;10.14430;-5.20625;22.66250;316.22501;-1.26000;1.35000;2.53500
-0.13176;0.06161;10.10587;-5.68750;23.40625;314.12500;-1.26000;1.35000;2.53500
-0.14213;0.08784;10.15589;-5.55625;23.05625;312.15625;-1.26000;1.35000;2.53500
-0.17873;0.03477;10.13454;-5.55625;22.92500;308.35001;-1.26000;1.35000;2.53500
-0.11895;0.09455;10.14491;-5.16250;23.31875;304.89374;-1.26000;1.35000;2.53500
-0.14579;0.09272;10.16809;-5.51250;23.45000;302.83749;-1.26000;1.35000;2.53500
-0.15982;0.07686;10.15833;-5.95000;23.31875;301.74374;-1.35000;1.29000;2.52000
-0.15433;0.06039;10.12783;-5.07500;23.01250;295.18124;-1.35000;1.29000;2.52000
-0.15006;0.06344;10.13881;-5.77500;24.23750;292.64374;-1.35000;1.29000;2.52000
-0.15616;0.06039;10.13881;-5.11875;23.31875;288.00626;-1.35000;1.29000;2.52000
-0.13298;0.04453;10.16016;-5.33750;22.88125;285.86249;-1.35000;1.29000;2.52000
-0.16470;0.06649;10.10099;-4.76875;23.49375;282.71249;-1.35000;1.29000;2.52000
-0.15067;0.06039;10.11197;-5.29375;22.53125;280.08749;-1.35000;1.29000;2.52000
-0.17507;0.04331;10.11380;-5.38125;23.31875;275.31876;-1.35000;1.29000;2.52000
-0.11529;0.06466;10.12600;-5.46875;22.92500;272.51874;-1.35000;1.29000;2.52000
-0.17507;0.05978;10.15223;-5.29375;23.05625;270.28751;-1.35000;1.29000;2.52000
-0.14091;0.09211;10.14613;-4.90000;22.57500;264.95001;-1.36500;1.21500;2.49000
-0.12993;0.05978;10.14857;-4.59375;22.75000;263.37500;-1.36500;1.21500;2.49000
-0.18971;0.06466;10.19005;-4.24375;22.79375;259.00000;-1.36500;1.21500;2.49000
-0.11712;0.08174;10.12661;-4.68125;22.57500;254.62500;-1.36500;1.21500;2.49000
-0.16470;0.03599;10.15345;-4.98750;23.75625;251.34375;-1.36500;1.21500;2.49000
-0.13481;0.06771;10.16870;-4.90000;23.14375;246.00626;-1.36500;1.21500;2.49000
-0.18117;0.03172;10.11319;-4.85625;22.53125;243.64375;-1.36500;1.21500;2.49000
-0.12078;0.06283;10.10892;-4.59375;23.18750;237.78125;-1.36500;1.21500;2.49000
-0.16653;0.04636;10.16138;-4.50625;22.18125;236.51250;-1.36500;1.21500;2.49000
-0.19825;0.03294;10.15162;-4.33125;22.75000;232.13750;-1.39500;1.12500;2.50500
-0.13176;0.07503;10.11685;-4.41875;22.26875;227.41251;-1.39500;1.12500;2.50500
-0.16897;0.05978;10.13454;-4.59375;22.61875;225.09375;-1.39500;1.12500;2.50500
-0.17141;0.04148;10.11441;-4.37500;22.75000;219.84375;-1.39500;1.12500;2.50500
-0.12139;0.08296;10.15894;-4.46250;22.26875;215.68750;-1.39500;1.12500;2.50500
-0.17568;0.03843;10.13271;-4.41875;23.18750;210.13126;-1.39500;1.12500;2.50500
-0.14274;0.06222;10.15528;-3.67500;22.26875;206.19376;-1.39500;1.12500;2.50500
-0.12932;0.03538;10.13881;-4.15625;22.79375;203.13126;-1.39500;1.12500;2.50500
-0.16775;0.05612;10.10221;-4.20000;22.31250;198.53751;-1.39500;1.12500;2.50500
-0.16714;0.06710;10.15406;-4.85625;22.88125;195.12500;-1.39500;1.12500;2.50500
-0.18178;0.04636;10.15711;-3.50000;22.44375;190.75000;-1.41000;1.05000;2.52000
-0.14518;0.07015;10.12966;-4.28750;22.79375;186.55000;-1.41000;1.05000;2.52000
-0.17934;0.02928;10.12234;-3.93750;22.92500;182.35001;-1.41000;1.05000;2.52000
-0.13847;0.05490;10.12905;-4.76875;23.18750;179.85625;-1.41000;1.05000;2.52000
-0.16409;0.04880;10.12356;-3.89375;22.70625;174.69376;-1.41000;1.05000;2.52000
-0.16287;0.06039;10.14003;-4.06875;22.22500;168.00000;-1.41000;1.05000;2.52000
-0.14518;0.05002;10.14186;-3.80625;22.66250;164.50000;-1.41000;1.05000;2.52000
-0.17934;0.05185;10.13027;-3.54375;21.91875;159.81876;-1.41000;1.05000;2.52000
-0.15921;0.04270;10.12539;-3.98125;22.75000;155.53125;-1.41000;1.05000;2.52000
-0.15494;0.05368;10.12966;-3.98125;22.66250;151.98750;-1.41000;1.05000;2.52000
-0.17995;0.04087;10.17907;-3.36875;22.92500;147.65625;-1.44000;0.99000;2.56500
-0.17141;0.03843;10.13149;-3.93750;22.66250;142.62500;-1.44000;0.99000;2.56500
-0.13054;0.05917;10.12722;-3.63125;23.23125;138.20625;-1.44000;0.99000;2.56500
-0.15921;0.04453;10.12173;-3.67500;22.31250;134.70625;-1.44000;0.99000;2.56500
-0.17751;0.03355;10.16687;-3.36875;22.70625;129.98125;-1.44000;0.99000;2.56500
-0.16043;0.03233;10.11136;-3.36875;22.26875;123.15625;-1.44000;0.99000;2.56500
-0.15433;0.05734;10.17358;-3.58750;22.79375;119.13125;-1.44000;0.99000;2.56500
-0.18300;0.02623;10.15955;-3.15000;22.22500;114.05625;-1.44000;0.99000;2.56500
-0.13786;0.07076;10.13942;-4.06875;22.83750;110.81875;-1.44000;0.99000;2.56500
-0.16226;0.02867;10.14308;-4.15625;22.22500;106.53125;-1.45500;1.00500;2.52000
-0.14152;0.05917;10.17602;-2.93125;22.79375;100.66875;-1.45500;1.00500;2.52000
-0.14091;0.03050;10.11990;-3.58750;22.31250;97.12500;-1.45500;1.00500;2.52000
-0.17934;0.06527;10.17907;-3.10625;22.35625;92.66250;-1.45500;1.00500;2.52000
-0.17019;0.04575;10.14186;-2.84375;22.75000;87.63125;-1.45500;1.00500;2.52000
-0.15982;0.04148;10.14735;-2.93125;22.83750;83.21250;-1.45500;1.00500;2.52000
-0.15799;0.05429;10.11868;-3.32500;22.61875;79.14375;-1.45500;1.00500;2.52000
-0.13725;0.02867;10.08940;-2.97500;22.26875;71.83750;-1.45500;1.00500;2.52000
-0.15372;0.04575;10.15345;-3.01875;21.91875;68.03125;-1.45500;1.00500;2.52000
-0.14579;0.03599;10.13210;-2.05625;21.83125;62.51875;-1.45500;1.00500;2.52000
-0.16287;0.04270;10.12844;-3.15000;22.18125;59.01875;-1.44000;1.02000;2.49000
-0.19398;0.03233;10.16626;-2.62500;22.35625;53.76875;-1.44000;1.02000;2.49000
-0.15006;0.05856;10.13454;-2.62500;22.66250;48.95625;-1.44000;1.02000;2.49000
-0.15799;0.04819;10.15772;-2.36250;22.18125;45.28125;-1.44000;1.02000;2.49000
-0.14701;0.07564;10.17785;-2.10000;22.22500;40.68750;-1.44000;1.02000;2.49000
-0.17263;0.02074;10.12417;-1.66250;22.13750;36.31250;-1.44000;1.02000;2.49000
-0.14884;0.05368;10.13271;-2.58125;22.40000;30.18750;-1.44000;1.02000;2.49000
-0.15799;0.03843;10.12966;-2.53750;22.88125;25.59375;-1.44000;1.02000;2.49000
-0.18361;0.04270;10.17541;-2.88750;22.09375;18.81250;-1.44000;1.02000;2.49000
-0.13908;0.04514;10.13637;-2.10000;22.35625;14.96250;-1.44000;1.02000;2.49000
-0.18361;0.04270;10.19005;-2.18750;22.13750;11.81250;-1.44000;0.97500;2.52000
-0.13237;0.04697;10.12905;-2.53750;22.35625;5.25000;-1.44000;0.97500;2.52000
-0.15128;0.05307;10.14979;-2.14375;21.56875;2.01250;-1.44000;0.97500;2.52000
-0.18483;0.02806;10.14308;-2.10000;21.70000;-2.40625;-1.44000;0.97500;2.52000
-0.13664;0.07137;10.16443;-2.23125;21.96250;-7.61250;-1.44000;0.97500;2.52000
-0.17324;-0.00061;10.13942;-2.23125;22.26875;-11.46250;-1.44000;0.97500;2.52000
-0.16226;0.03782;10.12844;-1.70625;21.74375;-17.23750;-1.44000;0.97500;2.52000
-0.14762;0.04758;10.14186;-1.70625;22.09375;-21.26250;-1.44000;0.97500;2.52000
-0.17324;0.04514;10.15284;-1.96875;21.65625;-29.75000;-1.44000;0.97500;2.52000
-0.14823;0.02684;10.13881;-2.01250;22.26875;-33.33750;-1.44000;0.97500;2.52000
-0.14640;0.04453;10.15040;-1.66250;21.87500;-37.75625;-1.48500;0.97500;2.50500
-0.14274;0.06405;10.14613;-2.23125;22.13750;-42.13125;-1.48500;0.97500;2.50500
-0.18666;0.03416;10.12905;-1.92500;21.87500;-46.50625;-1.48500;0.97500;2.50500
-0.14762;0.05307;10.15284;-2.18750;21.96250;-51.66875;-1.48500;0.97500;2.50500
-0.13908;0.06527;10.16016;-2.40625;22.26875;-55.38750;-1.48500;0.97500;2.50500
-0.17995;0.05063;10.16870;-1.40000;21.70000;-59.80625;-1.48500;0.97500;2.50500
-0.15982;0.03599;10.14247;-1.79375;21.87500;-65.58125;-1.48500;0.97500;2.50500
-0.12871;0.04148;10.16992;-1.79375;22.00625;-68.64375;-1.48500;0.97500;2.50500
-0.17080;0.02928;10.13393;-1.05000;21.78750;-76.56250;-1.48500;0.97500;2.50500
-0.16531;0.04941;10.14735;-1.44375;22.13750;-79.66875;-1.50000;0.96000;2.46000
-0.14884;0.04270;10.14796;-1.70625;21.96250;-84.91875;-1.50000;0.96000;2.46000
-0.15189;0.06954;10.15528;-1.31250;21.74375;-88.63750;-1.50000;0.96000;2.46000
-0.15921;0.04087;10.15955;-1.18125;22.09375;-93.18750;-1.50000;0.96000;2.46000
-0.13725;0.04758;10.11136;-1.40000;21.65625;-98.56875;-1.50000;0.96000;2.46000
-0.15006;0.04453;10.13881;-1.31250;21.91875;-101.50000;-1.50000;0.96000;2.46000
-0.15189;0.04941;10.11014;-0.78750;21.74375;-107.14375;-1.50000;0.96000;2.46000
-0.13786;0.07198;10.14491;-0.78750;21.04375;-111.16875;-1.50000;0.96000;2.46000
-0.17385;0.02928;10.14735;-0.83125;21.61250;-114.53750;-1.50000;0.96000;2.46000
-0.13969;0.05551;10.12966;-1.53125;21.87500;-119.65625;-1.50000;0.96000;2.46000
-0.13603;0.05002;10.15223;-1.57500;21.13125;-125.51875;-1.45500;1.00500;2.44500
-0.17568;0.02684;10.13942;-0.30625;21.78750;-129.54375;-1.45500;1.00500;2.44500
-0.14762;0.07320;10.18334;-1.44375;21.91875;-134.83749;-1.45500;1.00500;2.44500
-0.15921;0.05490;10.15406;-0.48125;21.30625;-137.59375;-1.45500;1.00500;2.44500
-0.17751;0.05795;10.12356;-0.70000;21.04375;-142.66875;-1.45500;1.00500;2.44500
-0.15860;0.03965;10.12661;-0.56875;21.17500;-146.56250;-1.45500;1.00500;2.44500
-0.13237;0.07015;10.14857;-1.13750;20.95625;-151.72501;-1.45500;1.00500;2.44500
-0.19154;0.03904;10.14552;-0.74375;21.70000;-154.35001;-1.45500;1.00500;2.44500
-0.15616;0.02745;10.11868;-0.48125;21.35000;-160.38750;-1.45500;1.00500;2.44500
-0.13847;0.08296;10.14552;-0.65625;20.95625;-163.80000;-1.45500;1.00500;2.44500
-0.18483;0.02440;10.12722;-0.39375;21.30625;-169.75000;-1.47000;1.08000;2.46000
-0.14579;0.07747;10.16443;-0.39375;21.17500;-174.38750;-1.47000;1.08000;2.46000
-0.14579;0.05124;10.15040;-0.96250;21.70000;-176.88126;-1.47000;1.08000;2.46000
-0.16714;0.04819;10.15650;-0.26250;21.30625;-181.95625;-1.47000;1.08000;2.46000
-0.10370;0.06283;10.16626;-0.21875;21.13125;-185.45625;-1.47000;1.08000;2.46000
-0.20923;0.04148;10.13210;-0.52500;21.56875;-188.91251;-1.47000;1.08000;2.46000
-0.13176;0.06283;10.13088;-0.21875;21.30625;-193.68124;-1.47000;1.08000;2.46000
-0.16470;0.05246;10.14552;-0.04375;21.39375;-197.13750;-1.47000;1.08000;2.46000
-0.14274;0.04880;10.14552;-0.21875;21.08750;-200.85625;-1.47000;1.08000;2.46000
-0.16592;0.05490;10.13149;-0.48125;21.08750;-204.39999;-1.45500;1.09500;2.50500
-0.13786;0.04819;10.10892;-0.30625;21.26250;-208.86250;-1.45500;1.09500;2.50500
-0.13725;0.05978;10.11868;-0.30625;21.17500;-213.41251;-1.45500;1.09500;2.50500
-0.17812;0.06893;10.18151;0.26250;21.43750;-218.88126;-1.45500;1.09500;2.50500
-0.16226;0.05002;10.14125;0.00000;20.78125;-220.71875;-1.45500;1.09500;2.50500
-0.18361;0.05673;10.12966;0.13125;21.30625;-224.43750;-1.45500;1.09500;2.50500
-0.13908;0.08113;10.16687;-0.35000;21.04375;-228.59375;-1.45500;1.09500;2.50500
-0.15982;0.04880;10.14491;0.21875;21.48125;-231.78751;-1.45500;1.09500;2.50500
-0.14823;0.05978;10.10770;0.00000;20.91250;-235.41875;-1.45500;1.09500;2.50500
-0.14030;0.05490;10.15894;0.52500;21.17500;-238.87500;-1.45500;1.09500;2.50500
-0.16592;0.02806;10.11685;0.61250;20.82500;-241.98125;-1.38000;1.12500;2.53500
-0.13603;0.06344;10.13454;0.08750;21.35000;-246.61874;-1.38000;1.12500;2.53500
-0.14335;0.07198;10.14491;0.26250;21.26250;-249.68124;-1.38000;1.12500;2.53500
-0.16470;0.06771;10.15162;0.17500;21.21875;-254.31876;-1.38000;1.12500;2.53500
-0.14457;0.06527;10.13027;0.04375;21.08750;-256.98749;-1.38000;1.12500;2.53500
-0.14457;0.07869;10.16931;-0.17500;21.04375;-259.65625;-1.38000;1.12500;2.53500
-0.14945;0.06527;10.13881;0.83125;21.04375;-263.68124;-1.38000;1.12500;2.53500
-0.16958;0.06039;10.13454;0.43750;20.95625;-267.04999;-1.38000;1.12500;2.53500
-0.16531;0.05795;10.15711;0.48125;20.69375;-270.41876;-1.38000;1.12500;2.53500
-0.14640;0.08662;10.12600;0.04375;21.30625;-273.00000;-1.38000;1.12500;2.53500
-0.16958;0.08052;10.13393;0.87500;21.17500;-275.97501;-1.30500;1.21500;2.50500
-0.15128;0.07015;10.12356;0.35000;21.26250;-279.16876;-1.30500;1.21500;2.50500
-0.16714;0.05307;10.13881;0.87500;20.56250;-281.79376;-1.30500;1.21500;2.50500
-0.14640;0.07442;10.15223;0.48125;20.65000;-287.00000;-1.30500;1.21500;2.50500
-0.12871;0.09150;10.14857;0.56875;20.91250;-288.88126;-1.30500;1.21500;2.50500
-0.18727;0.05734;10.11075;0.43750;21.04375;-291.63751;-1.30500;1.21500;2.50500
-0.13603;0.06954;10.13027;0.96250;20.56250;-295.96875;-1.30500;1.21500;2.50500
-0.13969;0.05673;10.13820;0.65625;20.69375;-296.97501;-1.30500;1.21500;2.50500
-0.16470;0.08113;10.18090;0.91875;20.91250;-299.77499;-1.30500;1.21500;2.50500
-0.14579;0.05978;10.14186;0.96250;21.26250;-302.88126;-1.30500;1.21500;2.50500
-0.12261;0.08906;10.13393;0.87500;21.04375;-305.11249;-1.27500;1.27500;2.52000
-0.14701;0.07015;10.12539;1.22500;20.91250;-306.42499;-1.27500;1.27500;2.52000
-0.13664;0.06161;10.11258;0.83125;21.39375;-310.49374;-1.27500;1.27500;2.52000
-0.13969;0.05551;10.10709;0.56875;20.95625;-312.37500;-1.27500;1.27500;2.52000
-0.17202;0.07259;10.16626;1.26875;21.08750;-317.01251;-1.27500;1.27500;2.52000
-0.12871;0.09943;10.16138;1.22500;20.73750;-318.14999;-1.27500;1.27500;2.52000
-0.15494;0.03355;10.14247;1.75000;20.82500;-320.03125;-1.27500;1.27500;2.52000
-0.14579;0.07747;10.14613;1.44375;20.43125;-323.18124;-1.27500;1.27500;2.52000
-0.14579;0.09455;10.16687;0.96250;21.08750;-324.79999;-1.27500;1.27500;2.52000
-0.17263;0.06222;10.16626;1.09375;20.78125;-327.16251;-1.24500;1.29000;2.53500
-0.10736;0.09699;10.15406;0.52500;20.73750;-330.70624;-1.24500;1.29000;2.53500
-0.14396;0.07503;10.11319;1.35625;20.08125;-329.96249;-1.24500;1.29000;2.53500
-0.14579;0.04819;10.12966;1.44375;20.03750;-333.68124;-1.24500;1.29000;2.53500
-0.12200;0.07808;10.14552;0.87500;19.95000;-336.56876;-1.24500;1.29000;2.53500
-0.15250;0.07259;10.14308;0.96250;20.56250;-337.44376;-1.24500;1.29000;2.53500
-0.12078;0.09089;10.14369;1.09375;20.47500;-340.33124;-1.24500;1.29000;2.53500
-0.14823;0.06283;10.13454;1.40000;20.43125;-340.68124;-1.24500;1.29000;2.53500
-0.16104;0.06466;10.15406;1.79375;21.00000;-343.13126;-1.24500;1.29000;2.53500
-0.13237;0.10553;10.13393;1.61875;20.78125;-346.14999;-1.24500;1.29000;2.53500
-0.13237;0.07503;10.13149;1.35625;20.60625;-346.19376;-1.15500;1.36500;2.52000
-0.12993;0.10614;10.16626;1.35625;20.16875;-347.68124;-1.15500;1.36500;2.52000
-0.14701;0.06710;10.10404;1.44375;20.91250;-349.56250;-1.15500;1.36500;2.52000
-0.10553;0.08296;10.11319;1.18125;20.91250;-351.26874;-1.15500;1.36500;2.52000
-0.15128;0.06527;10.13149;1.31250;20.34375;-351.92499;-1.15500;1.36500;2.52000
-0.13237;0.08418;10.14796;1.18125;20.51875;-354.68124;-1.15500;1.36500;2.52000
-0.13054;0.10004;10.17907;1.26875;20.65000;-354.59375;-1.15500;1.36500;2.52000
-0.17873;0.08296;10.15711;1.57500;20.21250;-357.96249;-1.15500;1.36500;2.52000
-0.10919;0.10553;10.16504;1.57500;20.86875;-357.65625;-1.15500;1.36500;2.52000
-0.14884;0.05917;10.13942;1.66250;21.35000;-358.22501;-1.15500;1.36500;2.52000
-0.14945;0.10004;10.16626;1.53125;20.82500;-360.58749;-1.08000;1.47000;2.53500
-0.11712;0.08662;10.14857;1.53125;20.69375;-361.11249;-1.08000;1.47000;2.53500
-0.14335;0.08784;10.14308;1.26875;20.12500;-362.46875;-1.08000;1.47000;2.53500
-0.11163;0.11895;10.13942;1.09375;20.65000;-362.42499;-1.08000;1.47000;2.53500
-0.15555;0.08418;10.14003;1.18125;20.65000;-364.17499;-1.08000;1.47000;2.53500
-0.10187;0.09943;10.12905;1.48750;20.47500;-364.39374;-1.08000;1.47000;2.53500
-0.14030;0.08235;10.14003;1.61875;19.99375;-365.57501;-1.08000;1.47000;2.53500
-0.12688;0.07076;10.17358;1.09375;20.95625;-366.36249;-1.08000;1.47000;2.53500
-0.12505;0.10187;10.12600;2.01250;21.00000;-366.93124;-1.08000;1.47000;2.53500
-0.12383;0.09150;10.13698;1.26875;20.56250;-367.58749;-1.00500;1.54500;2.56500
-0.13847;0.09882;10.15040;2.05625;20.30000;-368.11249;-1.00500;1.54500;2.56500
-0.12566;0.10065;10.12783;1.66250;21.00000;-367.63126;-1.00500;1.54500;2.56500
-0.13237;0.07686;10.11685;1.31250;20.95625;-367.67499;-1.00500;1.54500;2.56500
-0.14396;0.11224;10.15467;1.48750;20.43125;-368.76874;-1.00500;1.54500;2.56500
-0.10919;0.09089;10.12722;1.31250;20.03750;-369.07501;-1.00500;1.54500;2.56500
-0.13359;0.10553;10.14491;1.66250;20.34375;-369.33749;-1.00500;1.54500;2.56500
-0.11224;0.09516;10.14857;2.01250;20.69375;-369.81876;-1.00500;1.54500;2.56500
-0.12810;0.08601;10.13881;1.53125;20.21250;-368.76874;-1.00500;1.54500;2.56500
-0.12139;0.10492;10.13149;1.48750;20.73750;-369.90625;-1.00500;1.54500;2.56500
-0.11529;0.10309;10.17785;1.31250;20.56250;-368.68124;-0.91500;1.59000;2.58000
-0.13969;0.09333;10.11624;1.26875;20.78125;-370.16876;-0.91500;1.59000;2.58000
-0.09943;0.10065;10.14430;1.88125;20.16875;-369.90625;-0.91500;1.59000;2.58000
-0.14701;0.09333;10.16565;0.87500;20.21250;-369.03125;-0.91500;1.59000;2.58000
-0.09638;0.12993;10.15589;1.79375;20.16875;-368.54999;-0.91500;1.59000;2.58000
-0.16714;0.08113;10.17297;1.66250;20.65000;-367.32501;-0.91500;1.59000;2.58000
-0.14152;0.07503;10.15162;1.40000;21.04375;-368.89999;-0.91500;1.59000;2.58000
-0.10858;0.08662;10.10465;1.44375;21.35000;-367.54376;-0.91500;1.59000;2.58000
-0.11773;0.12017;10.20347;1.57500;20.38750;-366.71249;-0.91500;1.59000;2.58000
-0.10736;0.09150;10.15223;1.75000;21.08750;-365.79376;-0.91500;1.59000;2.58000
-0.11468;0.10553;10.12234;1.57500;20.38750;-364.65625;-0.81000;1.63500;2.61000
-0.10187;0.10614;10.13698;1.79375;20.65000;-365.92499;-0.81000;1.63500;2.61000
-0.10553;0.12322;10.13942;1.57500;20.60625;-363.03751;-0.81000;1.63500;2.61000
-0.15555;0.07991;10.11197;1.88125;20.78125;-362.77499;-0.81000;1.63500;2.61000
-0.09577;0.13176;10.16321;2.10000;20.56250;-363.73749;-0.81000;1.63500;2.61000
-0.12444;0.07869;10.11807;1.31250;20.73750;-360.85001;-0.81000;1.63500;2.61000
-0.13481;0.09760;10.15284;2.10000;20.38750;-361.15625;-0.81000;1.63500;2.61000
-0.09516;0.10004;10.13820;1.13750;21.17500;-360.10626;-0.81000;1.63500;2.61000
-0.12566;0.09516;10.12905;1.40000;20.86875;-359.10001;-0.81000;1.63500;2.61000
-0.10248;0.10370;10.10648;1.31250;20.69375;-357.78751;-0.81000;1.63500;2.61000
-0.09821;0.11834;10.16687;1.53125;21.00000;-355.33749;-0.73500;1.71000;2.64000
-0.10126;0.11102;10.15894;1.09375;20.69375;-355.64374;-0.73500;1.71000;2.64000
-0.09272;0.11102;10.13881;1.26875;20.43125;-352.66876;-0.73500;1.71000;2.64000
-0.13115;0.08784;10.14491;1.79375;20.86875;-351.13751;-0.73500;1.71000;2.64000
-0.09699;0.13847;10.14125;1.70625;20.56250;-352.66876;-0.73500;1.71000;2.64000
-0.10858;0.08113;10.11685;1.40000;20.65000;-347.41876;-0.73500;1.71000;2.64000
-0.10980;0.07320;10.12051;1.26875;20.47500;-348.51251;-0.73500;1.71000;2.64000
-0.08845;0.11712;10.15955;1.75000;20.25625;-346.98126;-0.73500;1.71000;2.64000
-0.11529;0.09028;10.14369;1.79375;20.69375;-342.82501;-0.73500;1.71000;2.64000
-0.11712;0.09577;10.17541;1.00625;20.82500;-343.48126;-0.70500;1.78500;2.59500
-0.08479;0.12566;10.14186;1.66250;20.91250;-339.32501;-0.70500;1.78500;2.59500
-0.11102;0.09333;10.13698;1.31250;20.73750;-338.49374;-0.70500;1.78500;2.59500
-0.10370;0.08418;10.13637;1.05000;20.78125;-336.96249;-0.70500;1.78500;2.59500
-0.09211;0.10797;10.15223;1.18125;20.60625;-334.42499;-0.70500;1.78500;2.59500
-0.13298;0.07991;10.13881;1.31250;20.51875;-332.23749;-0.70500;1.78500;2.59500
-0.08052;0.12627;10.16077;1.26875;20.95625;-331.71249;-0.70500;1.78500;2.59500
-0.12322;0.09943;10.12966;1.26875;21.17500;-328.78125;-0.70500;1.78500;2.59500
-0.08540;0.11956;10.15284;1.05000;21.52500;-327.11874;-0.70500;1.78500;2.59500
-0.09089;0.10614;10.14857;0.61250;20.95625;-324.23126;-0.70500;1.78500;2.59500
-0.08601;0.08723;10.10099;1.26875;20.73750;-322.21875;-0.64500;1.80000;2.56500
-0.09089;0.10858;10.13881;1.70625;20.82500;-318.14999;-0.64500;1.80000;2.56500
-0.12688;0.10309;10.13698;1.44375;20.30000;-318.28125;-0.64500;1.80000;2.56500
-0.08845;0.10492;10.13881;1.26875;20.47500;-313.81876;-0.64500;1.80000;2.56500
-0.12078;0.09394;10.17480;0.52500;21.21875;-312.02499;-0.64500;1.80000;2.56500
-0.07686;0.12810;10.17480;1.40000;21.17500;-310.40625;-0.64500;1.80000;2.56500
-0.12017;0.10553;10.14430;0.43750;20.91250;-305.46249;-0.64500;1.80000;2.56500
-0.11651;0.08601;10.17663;1.09375;20.21250;-305.15625;-0.64500;1.80000;2.56500
-0.06771;0.11712;10.13027;0.87500;20.47500;-302.70624;-0.64500;1.80000;2.56500
-0.09272;0.09760;10.19005;0.96250;21.00000;-297.71875;-0.64500;1.80000;2.56500
-0.11468;0.09394;10.12783;0.56875;20.95625;-297.06250;-0.49500;1.75500;2.58000
-0.05002;0.12322;10.12783;1.26875;20.34375;-290.89374;-0.49500;1.75500;2.58000
-0.12017;0.08601;10.10648;0.74375;21.17500;-290.45624;-0.49500;1.75500;2.58000
-0.07869;0.12444;10.12539;0.78750;20.86875;-287.30624;-0.49500;1.75500;2.58000
-0.12078;0.10370;10.16138;0.78750;20.82500;-282.49374;-0.49500;1.75500;2.58000
-0.09638;0.08784;10.14369;0.91875;20.60625;-282.45001;-0.49500;1.75500;2.58000
-0.05795;0.08723;10.11685;0.83125;20.86875;-278.60001;-0.49500;1.75500;2.58000
-0.11834;0.09882;10.16504;0.61250;21.00000;-274.92499;-0.49500;1.75500;2.58000
-0.08296;0.12261;10.16260;0.74375;21.39375;-273.52499;-0.49500;1.75500;2.58000
-0.09150;0.09089;10.12173;0.39375;20.60625;-268.14374;-0.39000;1.80000;2.59500
-0.09638;0.10858;10.12356;0.52500;21.04375;-266.08749;-0.39000;1.80000;2.59500
-0.09577;0.09577;10.16321;0.74375;21.13125;-262.45624;-0.39000;1.80000;2.59500
-0.07686;0.10675;10.13027;0.39375;21.65625;-258.34375;-0.39000;1.80000;2.59500
-0.09028;0.10431;10.13576;0.91875;20.47500;-254.66875;-0.39000;1.80000;2.59500
-0.08113;0.09943;10.11929;0.61250;20.69375;-251.73750;-0.39000;1.80000;2.59500
-0.11041;0.08662;10.15040;0.56875;20.95625;-247.66875;-0.39000;1.80000;2.59500
-0.09089;0.09943;10.15284;0.74375;21.43750;-245.08749;-0.39000;1.80000;2.59500
-0.05795;0.11529;10.14308;0.39375;20.51875;-241.41251;-0.39000;1.80000;2.59500
-0.09211;0.09760;10.13149;0.70000;20.73750;-237.95625;-0.39000;1.80000;2.59500
-0.05124;0.09882;10.13393;0.35000;20.86875;-235.06876;-0.37500;1.86000;2.61000
-0.07808;0.11224;10.17480;-0.52500;21.48125;-230.51875;-0.37500;1.86000;2.61000
-0.10187;0.12017;10.15406;-0.17500;21.30625;-227.80624;-0.37500;1.86000;2.61000
-0.08296;0.08662;10.13759;0.26250;21.04375;-221.85625;-0.37500;1.86000;2.61000
-0.10248;0.09760;10.14186;0.08750;21.21875;-218.66251;-0.37500;1.86000;2.61000
-0.09028;0.08723;10.10038;0.43750;21.08750;-214.33125;-0.37500;1.86000;2.61000
-0.10431;0.09882;10.16260;-0.39375;20.86875;-211.66251;-0.37500;1.86000;2.61000
-0.06832;0.10370;10.13576;0.43750;21.43750;-206.93750;-0.37500;1.86000;2.61000
-0.10004;0.08296;10.14125;0.00000;21.35000;-202.73750;-0.37500;1.86000;2.61000
-0.04758;0.11102;10.14857;0.08750;21.65625;-200.37500;-0.37500;1.86000;2.61000
-0.09821;0.10492;10.15833;-0.70000;21.43750;-195.34375;-0.34500;1.87500;2.62500
-0.06588;0.11773;10.13393;-0.26250;21.43750;-192.32500;-0.34500;1.87500;2.62500
-0.08113;0.09028;10.12600;-0.74375;21.00000;-187.68750;-0.34500;1.87500;2.62500
-0.06832;0.09516;10.15711;-0.91875;20.65000;-182.65625;-0.34500;1.87500;2.62500
-0.08113;0.07442;10.10404;0.13125;21.87500;-178.19376;-0.34500;1.87500;2.62500
-0.08479;0.11468;10.14552;-0.52500;21.39375;-174.69376;-0.34500;1.87500;2.62500
-0.05917;0.09577;10.14308;-0.65625;21.21875;-170.53751;-0.34500;1.87500;2.62500
-0.07686;0.11956;10.19371;-0.74375;20.78125;-166.77499;-0.34500;1.87500;2.62500
-0.08052;0.08723;10.12356;-0.48125;21.48125;-162.88126;-0.34500;1.87500;2.62500
-0.06527;0.09272;10.14064;-0.17500;21.13125;-157.67500;-0.34500;1.87500;2.62500
-0.08174;0.09333;10.14430;-0.96250;21.08750;-154.87500;-0.28500;1.89000;2.62500
-0.07076;0.10187;10.14918;-1.05000;21.70000;-150.54375;-0.28500;1.89000;2.62500
-0.09272;0.09211;10.12661;-0.70000;21.74375;-145.64375;-0.28500;1.89000;2.62500
-0.04575;0.11163;10.15345;-0.61250;21.26250;-141.22501;-0.28500;1.89000;2.62500
-0.10858;0.08235;10.18883;-0.30625;21.17500;-135.71249;-0.28500;1.89000;2.62500
-0.04819;0.07320;10.22482;-0.74375;22.00625;-132.03751;-0.28500;1.89000;2.62500
-0.06466;0.10187;10.12844;-0.56875;21.08750;-126.04375;-0.28500;1.89000;2.62500
-0.07564;0.08906;10.16016;-0.87500;21.39375;-123.41875;-0.28500;1.89000;2.62500
-0.07076;0.11163;10.14064;-1.57500;21.26250;-118.86875;-0.28500;1.89000;2.62500
-0.09028;0.07625;10.14735;-1.09375;21.83125;-113.44375;-0.19500;1.89000;2.62500
-0.05612;0.11895;10.12661;-0.65625;21.70000;-110.25000;-0.19500;1.89000;2.62500
-0.06771;0.08845;10.13271;-0.91875;21.39375;-104.34375;-0.19500;1.89000;2.62500
-0.07320;0.08601;10.12356;-0.78750;22.00625;-101.58750;-0.19500;1.89000;2.62500
